"Time (s)","Acceleration x (m/s^2)","Acceleration y (m/s^2)","Acceleration z (m/s^2)","Absolute acceleration (m/s^2)"
1.834256900E-2,8.477770805E0,4.713860750E-1,5.223531723E0,9.968956130E0
2.072100600E-2,8.458627701E0,4.618147612E-1,5.230710506E0,9.956002604E0
2.309944400E-2,8.415556908E0,4.594219327E-1,5.197210789E0,9.901700185E0
2.547782900E-2,8.389236450E0,4.570291340E-1,5.170889854E0,9.865407530E0
2.785626700E-2,8.370093346E0,4.713860750E-1,5.144568920E0,9.836018342E0
3.023470400E-2,8.334200859E0,4.857429862E-1,5.125426292E0,9.796164805E0
3.261314200E-2,8.355736732E0,5.096712112E-1,5.166104317E0,9.837008432E0
3.499157900E-2,8.360522270E0,5.072783828E-1,5.204389095E0,9.861101857E0
3.736996500E-2,8.355736732E0,5.192425251E-1,5.235496044E0,9.874126188E0
3.974840200E-2,8.348558426E0,5.096712112E-1,5.245067120E0,9.872634989E0
4.212684000E-2,8.341380119E0,5.096712112E-1,5.242674351E0,9.865293781E0
4.450527700E-2,8.374878883E0,4.809573591E-1,5.254638672E0,9.898542512E0
4.688366300E-2,8.324629784E0,4.881358147E-1,5.264209747E0,9.861523304E0
4.926210000E-2,8.300702095E0,4.689932466E-1,5.221138954E0,9.817428478E0
5.164053800E-2,8.264809608E0,4.187439680E-1,5.185246468E0,9.765715811E0
5.401897500E-2,8.336593628E0,4.450650215E-1,5.173282623E0,9.821391413E0
5.639741300E-2,8.403593063E0,4.881358147E-1,5.197210789E0,9.892909225E0
5.877579800E-2,8.425128937E0,4.953143001E-1,5.257031441E0,9.943063584E0
6.115423500E-2,8.377271652E0,4.737788737E-1,5.297709465E0,9.923148307E0
6.353267300E-2,8.298309326E0,4.187439680E-1,5.266602516E0,9.837397331E0
6.591111000E-2,8.260024071E0,3.948157430E-1,5.130211830E0,9.731544099E0
6.828949600E-2,8.465806961E0,4.833501875E-1,5.103890896E0,9.897131765E0
7.066793300E-2,8.525627136E0,5.431707501E-1,5.225924492E0,1.001457135E1
7.304637100E-2,8.468199730E0,5.527420044E-1,5.300102234E0,1.000534927E1
7.542480800E-2,8.405985832E0,4.594219327E-1,5.314459324E0,9.955658905E0
7.780319400E-2,8.386843681E0,4.115654826E-1,5.223531723E0,9.889075626E0
8.018163100E-2,8.458627701E0,4.235295951E-1,5.197210789E0,9.936737889E0
8.256006900E-2,8.487341881E0,4.450650215E-1,5.237888813E0,9.983412958E0
8.493850600E-2,8.451449394E0,4.426721931E-1,5.218746185E0,9.942749483E0
8.731694400E-2,8.434700012E0,4.211367965E-1,5.170889854E0,9.902505864E0
8.969532900E-2,8.456234932E0,4.450650215E-1,5.168497086E0,9.920652913E0
9.207376700E-2,8.444271088E0,4.283152521E-1,5.180460930E0,9.915964078E0
9.445220400E-2,8.386843681E0,4.163511395E-1,5.168497086E0,9.860317304E0
9.683064200E-2,8.322237015E0,4.043870270E-1,5.120640278E0,9.779780910E0
9.920907900E-2,8.310273170E0,4.067798555E-1,5.091926575E0,9.754682274E0
1.015874650E-1,8.288737297E0,4.354937077E-1,5.039284706E0,9.710160199E0
1.039659020E-1,8.360522270E0,4.546363056E-1,5.032105923E0,9.768680403E0
1.063443400E-1,8.384450912E0,4.833501875E-1,5.082355499E0,9.816464839E0
1.087227770E-1,8.370093346E0,4.905286431E-1,5.137390137E0,9.833201838E0
1.111011630E-1,8.350951195E0,4.857429862E-1,5.156532764E0,9.826706582E0
1.134796000E-1,8.319844246E0,4.666004181E-1,5.137390137E0,9.789295258E0
1.158580380E-1,8.300702095E0,4.642075896E-1,5.056034088E0,9.730396942E0
1.182364750E-1,8.298309326E0,4.618147612E-1,5.053641319E0,9.726998567E0
1.206149130E-1,8.315058708E0,4.809573591E-1,5.070391178E0,9.750917290E0
1.229932980E-1,8.303094864E0,5.072783828E-1,5.103890896E0,9.759529597E0
1.253717350E-1,8.322237015E0,5.000999570E-1,5.130211830E0,9.789218678E0
1.277501730E-1,8.336593628E0,5.024927258E-1,5.146961689E0,9.810326543E0
1.301286100E-1,8.322237015E0,4.881358147E-1,5.154139996E0,9.801176695E0
1.325069960E-1,8.276773453E0,4.785645306E-1,5.144568920E0,9.757079080E0
1.348854330E-1,8.260024071E0,4.905286431E-1,5.139782906E0,9.740943708E0
1.372638710E-1,8.262416840E0,4.953143001E-1,5.132604599E0,9.739430079E0
1.396423080E-1,8.267202377E0,5.096712112E-1,5.137390137E0,9.746752142E0
1.420207460E-1,8.267202377E0,5.407779217E-1,5.125426292E0,9.742128648E0
1.443991310E-1,8.257631302E0,5.503492355E-1,5.120640278E0,9.732025270E0
1.467775690E-1,8.255238533E0,5.527420044E-1,5.118247509E0,9.728871698E0
1.491560060E-1,8.260024071E0,5.455635786E-1,5.127819061E0,9.737564664E0
1.515344440E-1,8.281558990E0,5.527420044E-1,5.154139996E0,9.770102463E0
1.539128810E-1,8.307880402E0,5.623133183E-1,5.158925533E0,9.795488027E0
1.562912670E-1,8.324629784E0,5.766702294E-1,5.125426292E0,9.792956870E0
1.586697040E-1,8.343772888E0,5.862415433E-1,5.120640278E0,9.807302484E0
1.610481420E-1,8.396414757E0,5.742774606E-1,5.106283665E0,9.843968114E0
1.634265790E-1,8.415556908E0,5.790630579E-1,5.099104881E0,9.856864749E0
1.658049650E-1,8.427521706E0,5.742774606E-1,5.082355499E0,9.858156730E0
1.681834020E-1,8.441878319E0,5.886343718E-1,5.072783947E0,9.866353782E0
1.705618400E-1,8.451449394E0,5.958128572E-1,5.063212872E0,9.870061520E0
1.729402770E-1,8.468199730E0,5.742774606E-1,5.053641319E0,9.878233235E0
1.753186630E-1,8.453842163E0,5.503492355E-1,5.072783947E0,9.874384465E0
1.776971000E-1,8.468199730E0,5.383850932E-1,5.075176716E0,9.887248549E0
1.800755380E-1,8.461020470E0,5.359922647E-1,5.063212872E0,9.874830615E0
1.824539750E-1,8.441878319E0,5.264210105E-1,5.065605640E0,9.859147485E0
1.848324130E-1,8.432307243E0,5.216353536E-1,5.053641319E0,9.844551766E0
1.872107980E-1,8.415556908E0,5.264210105E-1,5.067998409E0,9.837851647E0
1.895892350E-1,8.422736168E0,4.881358147E-1,5.094319344E0,9.855599967E0
1.919676730E-1,8.403593063E0,4.809573591E-1,5.125426292E0,9.855033792E0
1.943461100E-1,8.394021988E0,4.570291340E-1,5.125426292E0,9.845733870E0
1.967245480E-1,8.374878883E0,4.450650215E-1,5.127819061E0,9.830117370E0
1.991029330E-1,8.370093346E0,4.594219327E-1,5.099104881E0,9.811748148E0
2.014813710E-1,8.331808090E0,4.618147612E-1,5.106283665E0,9.782966411E0
2.038598080E-1,8.348558426E0,4.618147612E-1,5.101497650E0,9.794742413E0
2.062382460E-1,8.338987350E0,4.666004181E-1,5.118247509E0,9.795554275E0
2.086166310E-1,8.336593628E0,4.618147612E-1,5.144568920E0,9.807071712E0
2.109950690E-1,8.341380119E0,4.426721931E-1,5.166104317E0,9.821568855E0
2.133735060E-1,8.341380119E0,4.666004181E-1,5.166104317E0,9.822676420E0
2.157519440E-1,8.331808090E0,4.713860750E-1,5.158925533E0,9.811001149E0
2.181303810E-1,8.327022552E0,4.761717021E-1,5.170889854E0,9.813467581E0
2.205087670E-1,8.334200859E0,4.642075896E-1,5.170889854E0,9.818986431E0
2.228872040E-1,8.336593628E0,4.737788737E-1,5.178068161E0,9.825255702E0
2.252656420E-1,8.336593628E0,4.689932466E-1,5.170889854E0,9.821244823E0
2.276440790E-1,8.329415321E0,4.666004181E-1,5.180460930E0,9.820084062E0
2.300224650E-1,8.338987350E0,4.618147612E-1,5.197210789E0,9.836817722E0
2.324009020E-1,8.334200859E0,4.761717021E-1,5.204389095E0,9.837240940E0
2.347793400E-1,8.343772888E0,4.761717021E-1,5.199603558E0,9.842822901E0
2.371577770E-1,8.358129501E0,4.977070987E-1,5.182853699E0,9.847233803E0
2.395362150E-1,8.370093346E0,4.977070987E-1,5.170889854E0,9.851105362E0
2.419146000E-1,8.355736732E0,4.977070987E-1,5.175675392E0,9.841425936E0
2.442930380E-1,8.360522270E0,5.000999570E-1,5.180460930E0,9.848127134E0
2.466714750E-1,8.343772888E0,5.096712112E-1,5.178068161E0,9.833142968E0
2.490499130E-1,8.338987350E0,5.168496966E-1,5.168497086E0,9.824418851E0
2.514282980E-1,8.329415321E0,5.096712112E-1,5.173282623E0,9.818440683E0
2.538067350E-1,8.348558426E0,5.072783828E-1,5.163711071E0,9.829530567E0
2.561851730E-1,8.362915039E0,4.977070987E-1,5.146961689E0,9.832460269E0
2.585636100E-1,8.374878883E0,5.024927258E-1,5.168497086E0,9.854159395E0
2.609420480E-1,8.391629219E0,5.024927258E-1,5.185246468E0,9.877181826E0
2.633204330E-1,8.377271652E0,5.120640397E-1,5.182853699E0,9.864221327E0
2.656988710E-1,8.355736732E0,5.024927258E-1,5.161318302E0,9.834126392E0
2.680773080E-1,8.346165657E0,4.761717021E-1,5.137390137E0,9.812135246E0
2.704557460E-1,8.394021988E0,4.737788737E-1,5.144568920E0,9.856503484E0
2.728341310E-1,8.420342445E0,4.833501875E-1,5.173282623E0,9.894374533E0
2.752125690E-1,8.401200294E0,4.809573591E-1,5.216353416E0,9.900597423E0
2.775910060E-1,8.384450912E0,4.977070987E-1,5.213960648E0,9.885955447E0
2.799694440E-1,8.372486115E0,4.929214716E-1,5.182853699E0,9.859181902E0
2.823478810E-1,8.386843681E0,4.642075896E-1,5.156532764E0,9.856189211E0
2.847262670E-1,8.382058144E0,4.259224236E-1,5.139782906E0,9.841629791E0
2.871047040E-1,8.379665375E0,4.283152521E-1,5.142175674E0,9.840945911E0
2.894831420E-1,8.362915039E0,4.115654826E-1,5.127819061E0,9.818465380E0
2.918615790E-1,8.346165657E0,4.283152521E-1,5.094319344E0,9.787442194E0
2.942399650E-1,8.391629219E0,4.474578202E-1,5.106283665E0,9.833300174E0
2.966184020E-1,8.425128937E0,4.618147612E-1,5.170889854E0,9.896169580E0
2.989968400E-1,8.401200294E0,4.546363056E-1,5.206781864E0,9.894313414E0
3.013752770E-1,8.386843681E0,4.331009090E-1,5.204389095E0,9.879898238E0
3.037537150E-1,8.382058144E0,4.091726840E-1,5.156532764E0,9.849677719E0
3.061321000E-1,8.374878883E0,4.139583111E-1,5.115854740E0,9.822521444E0
3.085105380E-1,8.370093346E0,4.354937077E-1,5.094319344E0,9.808170419E0
3.108889750E-1,8.370093346E0,4.283152521E-1,5.094319344E0,9.807854309E0
3.132674130E-1,8.338987350E0,4.450650215E-1,5.103890896E0,9.787057534E0
3.156457980E-1,8.348558426E0,4.450650215E-1,5.089533806E0,9.787740547E0
3.180242350E-1,8.367700577E0,4.689932466E-1,5.096712112E0,9.808916452E0
3.204026730E-1,8.396414757E0,4.713860750E-1,5.137390137E0,9.854682289E0
3.227811100E-1,8.377271652E0,4.522434771E-1,5.163711071E0,9.851249490E0
3.251595480E-1,8.341380119E0,4.570291340E-1,5.163711071E0,9.820967872E0
3.275379330E-1,8.329415321E0,4.785645306E-1,5.118247509E0,9.787984530E0
3.299163710E-1,8.362915039E0,4.785645306E-1,5.079962254E0,9.796600862E0
3.322948080E-1,8.343772888E0,4.809573591E-1,5.077569485E0,9.779139935E0
3.346732460E-1,8.319844246E0,4.761717021E-1,5.077569485E0,9.758496792E0
3.370516310E-1,8.346165657E0,4.857429862E-1,5.099104881E0,9.792614463E0
3.394300690E-1,8.391629219E0,4.761717021E-1,5.142175674E0,9.853331980E0
3.418085060E-1,8.360522270E0,4.689932466E-1,5.170889854E0,9.841564367E0
3.441869440E-1,8.338987350E0,4.666004181E-1,5.127819061E0,9.800558877E0
3.465653810E-1,8.353343964E0,4.977070987E-1,5.096712112E0,9.798088696E0
3.489437670E-1,8.394021988E0,4.761717021E-1,5.106283665E0,9.836690373E0
3.513222040E-1,8.396414757E0,4.570291340E-1,5.185246468E0,9.879040304E0
3.537006420E-1,8.391629219E0,4.546363056E-1,5.216353416E0,9.891232385E0
3.560790790E-1,8.360522270E0,4.474578202E-1,5.187639713E0,9.849373428E0
3.584574650E-1,8.346165657E0,4.307080805E-1,5.180460930E0,9.832658139E0
3.608359020E-1,8.370093346E0,4.426721931E-1,5.190032482E0,9.858542410E0
3.632143400E-1,8.348558426E0,4.187439680E-1,5.166104317E0,9.826617328E0
3.655927770E-1,8.300702095E0,4.067798555E-1,5.149354458E0,9.776654666E0
3.679712150E-1,8.276773453E0,4.378865361E-1,5.111069202E0,9.737543417E0
3.703496000E-1,8.315058708E0,4.713860750E-1,5.101497650E0,9.766661888E0
3.727280380E-1,8.338987350E0,4.809573591E-1,5.139782906E0,9.807517440E0
3.751064750E-1,8.317451477E0,4.761717021E-1,5.175675392E0,9.807872059E0
3.774849130E-1,8.276773453E0,4.498506486E-1,5.199603558E0,9.784846527E0
3.798632980E-1,8.245666504E0,4.546363056E-1,5.163711071E0,9.739693131E0
3.822417350E-1,8.269595146E0,4.450650215E-1,5.108676434E0,9.730511891E0
3.846201730E-1,8.334200859E0,4.618147612E-1,5.144568920E0,9.805037797E0
3.869986100E-1,8.374878883E0,5.048855543E-1,5.209175110E0,9.875677752E0
3.893770480E-1,8.312665939E0,4.833501875E-1,5.254638672E0,9.846078915E0
3.917554330E-1,8.307880402E0,4.307080805E-1,5.254638672E0,9.839594188E0
3.941338710E-1,8.307880402E0,4.139583111E-1,5.213960648E0,9.817210596E0
3.965123080E-1,8.331808090E0,4.067798555E-1,5.199603558E0,9.829566270E0
3.988907460E-1,8.327022552E0,3.900300860E-1,5.233103275E0,9.842601178E0
4.012691830E-1,8.300702095E0,3.900300860E-1,5.197210789E0,9.801264139E0
4.036475690E-1,8.329415321E0,4.187439680E-1,5.185246468E0,9.820452486E0
4.060260060E-1,8.322237015E0,4.163511395E-1,5.154139996E0,9.797863864E0
4.084044440E-1,8.307880402E0,4.689932466E-1,5.144568920E0,9.783016958E0
4.107828810E-1,8.267202377E0,5.048855543E-1,5.113461971E0,9.733911747E0
4.131612670E-1,8.283951759E0,4.809573591E-1,5.113461971E0,9.746931315E0
4.155397040E-1,8.283951759E0,4.689932466E-1,5.123033047E0,9.751373186E0
4.179181420E-1,8.274380684E0,4.905286431E-1,5.115854740E0,9.740532007E0
4.202965790E-1,8.291130066E0,5.312066078E-1,5.103890896E0,9.750626673E0
4.226750170E-1,8.298309326E0,5.216353536E-1,5.108676434E0,9.758719999E0
4.250534020E-1,8.331808090E0,4.881358147E-1,5.079962254E0,9.770533206E0
4.274318400E-1,8.331808090E0,4.378865361E-1,5.103890896E0,9.780617207E0
4.298102770E-1,8.384450912E0,4.283152521E-1,5.161318302E0,9.855033114E0
4.321887150E-1,8.398807526E0,4.570291340E-1,5.132604599E0,9.853551312E0
4.345671000E-1,8.396414757E0,4.474578202E-1,5.075176716E0,9.821273745E0
4.369455380E-1,8.396414757E0,4.426721931E-1,5.058426857E0,9.812411615E0
4.393239750E-1,8.391629219E0,4.570291340E-1,5.056034088E0,9.807741701E0
4.417024130E-1,8.422736168E0,3.924229145E-1,5.084748268E0,9.846377265E0
4.440808500E-1,8.449056625E0,3.924229145E-1,5.108676434E0,9.881251363E0
4.464592350E-1,8.444271088E0,4.402793646E-1,5.108676434E0,9.879176839E0
4.488376730E-1,8.437092781E0,4.307080805E-1,5.096712112E0,9.866433925E0
4.512161100E-1,8.410771370E0,4.187439680E-1,5.118247509E0,9.854586704E0
4.535945480E-1,8.415556908E0,3.876372576E-1,5.130211830E0,9.863616686E0
4.559729850E-1,8.413164139E0,3.996013701E-1,5.154139996E0,9.874521314E0
4.583513710E-1,8.384450912E0,3.900300860E-1,5.142175674E0,9.843429851E0
4.607298080E-1,8.341380119E0,3.972085714E-1,5.113461971E0,9.792031979E0
4.631082460E-1,8.341380119E0,3.996013701E-1,5.053641319E0,9.761024236E0
4.654866830E-1,8.353343964E0,3.948157430E-1,5.046463013E0,9.767344766E0
4.678650690E-1,8.372486115E0,4.043870270E-1,5.139782906E0,9.832569396E0
4.702435060E-1,8.353343964E0,4.331009090E-1,5.144568920E0,9.820006168E0
4.726219440E-1,8.338987350E0,4.139583111E-1,5.108676434E0,9.788189129E0
4.750003810E-1,8.329415321E0,3.852444589E-1,5.065605640E0,9.756430361E0
4.773787670E-1,8.355736732E0,3.900300860E-1,5.094319344E0,9.794005788E0
4.797572040E-1,8.348558426E0,4.139583111E-1,5.130211830E0,9.807592095E0
4.821356420E-1,8.334200859E0,4.187439680E-1,5.206781864E0,9.835894868E0
4.845140790E-1,8.334200859E0,4.043870270E-1,5.252245903E0,9.859438110E0
4.868925170E-1,8.336593628E0,3.948157430E-1,5.254638672E0,9.862347609E0
4.892709020E-1,8.346165657E0,4.019941986E-1,5.230710506E0,9.858012625E0
4.916493400E-1,8.329415321E0,4.354937077E-1,5.211567879E0,9.835103158E0
4.940277770E-1,8.319844246E0,4.474578202E-1,5.197210789E0,9.819930079E0
4.964062150E-1,8.315058708E0,4.594219327E-1,5.199603558E0,9.817695605E0
4.987846520E-1,8.319844246E0,4.426721931E-1,5.199603558E0,9.820979793E0
5.011630380E-1,8.327022552E0,4.618147612E-1,5.204389095E0,9.830475234E0
5.035414750E-1,8.310273170E0,4.546363056E-1,5.223531723E0,9.826119173E0
5.059199130E-1,8.324629784E0,4.402793646E-1,5.233103275E0,9.842696625E0
5.082983500E-1,8.350951195E0,4.426721931E-1,5.233103275E0,9.865075490E0
5.106767350E-1,8.338987350E0,4.546363056E-1,5.223531723E0,9.850415619E0
5.130551730E-1,8.331808090E0,4.498506486E-1,5.218746185E0,9.841580331E0
5.154336100E-1,8.322237015E0,4.331009090E-1,5.211567879E0,9.828918816E0
5.178120480E-1,8.312665939E0,4.402793646E-1,5.211567879E0,9.821135407E0
5.201904850E-1,8.293522835E0,4.259224236E-1,5.223531723E0,9.810668407E0
5.225688710E-1,8.286344528E0,4.402793646E-1,5.218746185E0,9.802686535E0
5.249473080E-1,8.264809608E0,4.450650215E-1,5.209175110E0,9.779604596E0
5.273257460E-1,8.262416840E0,4.474578202E-1,5.211567879E0,9.778966729E0
5.297041830E-1,8.252845764E0,4.378865361E-1,5.199603558E0,9.764071127E0
5.320825690E-1,8.240880966E0,4.402793646E-1,5.190032482E0,9.748969288E0
5.344610060E-1,8.245666504E0,4.163511395E-1,5.206781864E0,9.760888369E0
5.368394440E-1,8.231309891E0,4.283152521E-1,5.213960648E0,9.753117558E0
5.392178810E-1,8.231309891E0,4.331009090E-1,5.199603558E0,9.745661397E0
5.415963190E-1,8.248059273E0,4.235295951E-1,5.199603558E0,9.759392207E0
5.439747040E-1,8.226524353E0,4.163511395E-1,5.185246468E0,9.733233385E0
5.463531420E-1,8.224131584E0,4.283152521E-1,5.190032482E0,9.734281249E0
5.487315790E-1,8.233702660E0,4.474578202E-1,5.194818020E0,9.745779202E0
5.511100170E-1,8.236095428E0,4.235295951E-1,5.194818020E0,9.746731733E0
5.534884020E-1,8.228917122E0,4.235295951E-1,5.192425251E0,9.739390859E0
5.558668400E-1,8.248059273E0,4.139583111E-1,5.173282623E0,9.744983138E0
5.582452770E-1,8.269595146E0,4.283152521E-1,5.156532764E0,9.754972475E0
5.606237150E-1,8.298309326E0,4.235295951E-1,5.151747227E0,9.776595240E0
5.630021520E-1,8.307880402E0,3.972085714E-1,5.154139996E0,9.784876622E0
5.653805380E-1,8.312665939E0,4.043870270E-1,5.158925533E0,9.791754518E0
5.677589750E-1,8.317451477E0,3.852444589E-1,5.161318302E0,9.796306395E0
5.701374130E-1,8.331808090E0,3.804588020E-1,5.151747227E0,9.803278760E0
5.725158500E-1,8.350951195E0,4.235295951E-1,5.144568920E0,9.817553287E0
5.748942880E-1,8.329415321E0,4.331009090E-1,5.146961689E0,9.800915805E0
5.772726730E-1,8.310273170E0,3.996013701E-1,5.118247509E0,9.768151257E0
5.796511100E-1,8.319844246E0,4.331009090E-1,5.115854740E0,9.776469424E0
5.820295480E-1,8.343772888E0,4.211367965E-1,5.099104881E0,9.787582582E0
5.844079850E-1,8.355736732E0,3.876372576E-1,5.125426292E0,9.810127097E0
5.867863710E-1,8.374878883E0,3.852444589E-1,5.127819061E0,9.827590647E0
5.891648080E-1,8.365307808E0,4.043870270E-1,5.123033047E0,9.817707023E0
5.915432460E-1,8.338987350E0,4.331009090E-1,5.111069202E0,9.790266330E0
5.939216830E-1,8.307880402E0,4.666004181E-1,5.103890896E0,9.761572363E0
5.963001210E-1,8.291130066E0,4.761717021E-1,5.108676434E0,9.750289850E0
5.986785060E-1,8.336593628E0,5.192425251E-1,5.108676434E0,9.791168522E0
6.010569440E-1,8.334200859E0,5.383850932E-1,5.115854740E0,9.793913017E0
6.034353810E-1,8.295916557E0,5.288137794E-1,5.137390137E0,9.772136560E0
6.058138190E-1,8.281558990E0,5.024927258E-1,5.103890896E0,9.740966098E0
6.081922040E-1,8.298309326E0,4.929214716E-1,5.101497650E0,9.753470537E0
6.105706420E-1,8.295916557E0,4.929214716E-1,5.123033047E0,9.762718407E0
6.129490790E-1,8.291130066E0,4.594219327E-1,5.134997368E0,9.763303962E0
6.153275170E-1,8.327022552E0,4.235295951E-1,5.146961689E0,9.798463989E0
6.177059540E-1,8.341380119E0,3.708875179E-1,5.173282623E0,9.822374099E0
6.200843400E-1,8.377271652E0,3.565305769E-1,5.197210789E0,9.864927489E0
6.224627770E-1,8.410771370E0,3.852444589E-1,5.209175110E0,9.900757226E0
6.248412150E-1,8.420342445E0,3.828516304E-1,5.216353416E0,9.912572080E0
6.272196520E-1,8.405985832E0,3.732803464E-1,5.223531723E0,9.903798246E0
6.295980380E-1,8.432307243E0,3.421736360E-1,5.216353416E0,9.921251494E0
6.319764750E-1,8.434700012E0,3.732803464E-1,5.173282623E0,9.901835972E0
6.343549130E-1,8.405985832E0,4.139583111E-1,5.180460930E0,9.882769589E0
6.367333500E-1,8.377271652E0,4.187439680E-1,5.146961689E0,9.840997992E0
6.391117880E-1,8.367700577E0,4.139583111E-1,5.130211830E0,9.823891685E0
6.414901730E-1,8.379665375E0,3.924229145E-1,5.118247509E0,9.826965203E0
6.438686100E-1,8.367700577E0,3.828516304E-1,5.139782906E0,9.827632300E0
6.462470480E-1,8.355736732E0,3.972085714E-1,5.156532764E0,9.826797095E0
6.486254850E-1,8.379665375E0,3.972085714E-1,5.144568920E0,9.840892023E0
6.510039230E-1,8.377271652E0,4.043870270E-1,5.161318302E0,9.847914288E0
6.533823080E-1,8.415556908E0,4.019941986E-1,5.154139996E0,9.876657152E0
6.557607460E-1,8.417949677E0,4.163511395E-1,5.151747227E0,9.878042545E0
6.581391830E-1,8.408378601E0,4.450650215E-1,5.139782906E0,9.864901514E0
6.605176210E-1,8.441878319E0,4.546363056E-1,5.127819061E0,9.887695993E0
6.628960060E-1,8.456234932E0,4.498506486E-1,5.118247509E0,9.894783090E0
6.652744440E-1,8.420342445E0,4.737788737E-1,5.146961689E0,9.880174490E0
6.676528810E-1,8.422736168E0,4.689932466E-1,5.146961689E0,9.881986331E0
6.700313190E-1,8.458627701E0,5.000999570E-1,5.144568920E0,9.912874050E0
6.724097560E-1,8.441878319E0,5.192425251E-1,5.142175674E0,9.898327789E0
6.747881420E-1,8.422736168E0,5.072783828E-1,5.156532764E0,9.888864751E0
6.771665790E-1,8.403593063E0,5.264210105E-1,5.163711071E0,9.877317828E0
6.795450170E-1,8.389236450E0,5.240281820E-1,5.170889854E0,9.868738300E0
6.819234540E-1,8.422736168E0,5.312066078E-1,5.168497086E0,9.896364339E0
6.843018400E-1,8.398807526E0,5.647061467E-1,5.170889854E0,9.879117510E0
6.866802770E-1,8.370093346E0,5.838487148E-1,5.175675392E0,9.858344572E0
6.890587150E-1,8.365307808E0,5.766702294E-1,5.149354458E0,9.840059685E0
6.914371520E-1,8.370093346E0,5.862415433E-1,5.123033047E0,9.830951600E0
6.938155380E-1,8.372486115E0,6.005984545E-1,5.123033047E0,9.833855289E0
6.961939750E-1,8.343772888E0,6.149554253E-1,5.127819061E0,9.812810225E0
6.985724130E-1,8.338987350E0,5.958128572E-1,5.151747227E0,9.820091776E0
7.009508500E-1,8.346165657E0,5.694918036E-1,5.144568920E0,9.820865108E0
7.033292880E-1,8.346165657E0,5.168496966E-1,5.130211830E0,9.810437717E0
7.057076730E-1,8.367700577E0,5.096712112E-1,5.146961689E0,9.837143504E0
7.080861100E-1,8.370093346E0,5.144568682E-1,5.156532764E0,9.844437954E0
7.104645480E-1,8.384450912E0,5.048855543E-1,5.130211830E0,9.842408239E0
7.128429850E-1,8.408378601E0,4.833501875E-1,5.132604599E0,9.862965481E0
7.152214230E-1,8.413164139E0,4.546363056E-1,5.134997368E0,9.866925710E0
7.175998080E-1,8.437092781E0,4.331009090E-1,5.142175674E0,9.890100185E0
7.199782460E-1,8.461020470E0,3.972085714E-1,5.173282623E0,9.925194967E0
7.223566830E-1,8.480163574E0,3.708875179E-1,5.182853699E0,9.945486628E0
7.247351210E-1,8.480163574E0,3.684946895E-1,5.204389095E0,9.956637406E0
7.271135060E-1,8.504091263E0,3.589234054E-1,5.204389095E0,9.976675803E0
7.294919440E-1,8.501698494E0,3.397808075E-1,5.225924492E0,9.985219831E0
7.318703810E-1,8.501698494E0,3.230310678E-1,5.233103275E0,9.988423111E0
7.342488190E-1,8.513663292E0,2.751746178E-1,5.211567879E0,9.985921263E0
7.366272560E-1,8.520841599E0,2.632105052E-1,5.211567879E0,9.991719625E0
7.390056420E-1,8.494520187E0,2.033899277E-1,5.221138954E0,9.972889885E0
7.413840790E-1,8.480163574E0,1.866401732E-1,5.209175110E0,9.954070229E0
7.437625170E-1,8.463413239E0,1.698904037E-1,5.206781864E0,9.938249533E0
7.461409540E-1,8.449056625E0,1.387837082E-1,5.213960648E0,9.929310369E0
7.485193920E-1,8.427521706E0,1.292124242E-1,5.216353416E0,9.912121918E0
7.508977770E-1,8.386843681E0,1.268195957E-1,5.216353416E0,9.877528694E0
7.532762150E-1,8.367700577E0,1.052841991E-1,5.221138954E0,9.863558672E0
7.556546520E-1,8.327022552E0,7.896314561E-2,5.225924492E0,9.831369516E0
7.580330900E-1,8.307880402E0,6.699903309E-2,5.247459888E0,9.826555903E0
7.604114750E-1,8.303094864E0,7.178468257E-2,5.266602516E0,9.832783910E0
7.627899130E-1,8.305487633E0,4.546362907E-2,5.271388054E0,9.837211179E0
7.651683500E-1,8.300702095E0,2.871387079E-2,5.292923450E0,9.844669543E0
7.675467880E-1,8.303094864E0,3.110669367E-2,5.302495003E0,9.851842731E0
7.699251730E-1,8.262416840E0,5.742774159E-2,5.297709465E0,9.815118723E0
7.723036100E-1,8.271987915E0,6.939185411E-2,5.288137913E0,9.818095634E0
7.746820480E-1,8.295916557E0,5.264209956E-2,5.280959606E0,9.834304097E0
7.770604850E-1,8.283951759E0,4.307080805E-2,5.290530682E0,9.829314663E0
7.794389230E-1,8.305487633E0,4.307080805E-2,5.312066078E0,9.859058065E0
7.818173080E-1,8.305487633E0,2.392822690E-2,5.319244862E0,9.862862834E0
7.841957460E-1,8.322237015E0,9.571290575E-3,5.328815937E0,9.882105030E0
7.865741830E-1,8.322237015E0,3.349951655E-2,5.328815937E0,9.882157175E0
7.889526210E-1,8.319844246E0,3.349951655E-2,5.309673309E0,9.869830857E0
7.913310580E-1,8.315058708E0,1.674975827E-2,5.302495003E0,9.861893080E0
7.937094440E-1,8.317451477E0,2.632104978E-2,5.285745144E0,9.854937524E0
7.960878810E-1,8.336593628E0,1.196411345E-2,5.285745144E0,9.871070772E0
7.984663190E-1,8.350951195E0,-7.178467698E-3,5.278566837E0,9.879357532E0
8.008447560E-1,8.370093346E0,-2.871387079E-2,5.268995285E0,9.890480191E0
8.032231420E-1,8.379665375E0,-2.871387079E-2,5.249852657E0,9.888405797E0
8.056015790E-1,8.408378601E0,-1.674975827E-2,5.233103275E0,9.903861931E0
8.079800170E-1,8.420342445E0,-1.674975827E-2,5.206781864E0,9.900152768E0
8.103584540E-1,8.429914474E0,-7.178467698E-3,5.180460930E0,9.894477501E0
8.127368920E-1,8.417949677E0,-3.110669367E-2,5.175675392E0,9.881824738E0
8.151152770E-1,8.425128937E0,-5.264209956E-2,5.175675392E0,9.888032391E0
8.174937150E-1,8.432307243E0,-7.417750359E-2,5.211567879E0,9.913109880E0
8.198721520E-1,8.449056625E0,-8.135596663E-2,5.235496044E0,9.939999773E0
8.222505900E-1,8.439485550E0,-1.028913707E-1,5.237888813E0,9.933326844E0
8.246290270E-1,8.439485550E0,-8.135596663E-2,5.209175110E0,9.918015954E0
8.270074130E-1,8.417949677E0,-4.785645381E-2,5.166104317E0,9.876882140E0
8.293858500E-1,8.417949677E0,-5.264209956E-2,5.139782906E0,9.863164617E0
8.317642880E-1,8.427521706E0,-5.742774159E-2,5.120640278E0,9.861408464E0
8.341426730E-1,8.434700012E0,-5.982056633E-2,5.134997368E0,9.875015988E0
8.365211100E-1,8.444271088E0,-6.939185411E-2,5.132604599E0,9.882011911E0
8.388995480E-1,8.477770805E0,-4.307080805E-2,5.137390137E0,9.912982918E0
8.412779850E-1,8.489734650E0,-1.674975827E-2,5.139782906E0,9.924376217E0
8.436564230E-1,8.494520187E0,-9.571290575E-3,5.137390137E0,9.927222282E0
8.460348080E-1,8.480163574E0,1.914258115E-2,5.151747227E0,9.922400928E0
8.484132460E-1,8.463413239E0,5.264209956E-2,5.178068161E0,9.921921423E0
8.507916830E-1,8.465806961E0,8.853443712E-2,5.201996326E0,9.936724391E0
8.531701210E-1,8.461020470E0,1.028913707E-1,5.216353416E0,9.940311715E0
8.555485580E-1,8.463413239E0,1.052841991E-1,5.240281582E0,9.954948491E0
8.579269440E-1,8.456234932E0,1.052841991E-1,5.271388054E0,9.965265977E0
8.603053810E-1,8.417949677E0,9.571290761E-2,5.283352375E0,9.939056798E0
8.626838190E-1,8.417949677E0,1.220339537E-1,5.288137913E0,9.941889741E0
8.650622560E-1,8.401200294E0,1.387837082E-1,5.273781300E0,9.920292158E0
8.674406940E-1,8.382058144E0,1.651047617E-1,5.259424210E0,9.896853102E0
8.698190790E-1,8.348558426E0,1.818545163E-1,5.247459888E0,9.862420298E0
8.721975170E-1,8.310273170E0,1.818545163E-1,5.230710506E0,9.821101956E0
8.745759540E-1,8.319844246E0,2.033899277E-1,5.221138954E0,9.824533969E0
8.769543920E-1,8.293522835E0,2.177468538E-1,5.221138954E0,9.802562251E0
8.793327770E-1,8.271987915E0,1.938186288E-1,5.228317261E0,9.787678535E0
8.817112150E-1,8.267202377E0,2.057827413E-1,5.237888813E0,9.788996930E0
8.840896520E-1,8.255238533E0,2.297109663E-1,5.235496044E0,9.778146511E0
8.864680900E-1,8.276773453E0,2.297109663E-1,5.230710506E0,9.793777531E0
8.888465270E-1,8.269595146E0,2.488535494E-1,5.247459888E0,9.797140769E0
8.912249130E-1,8.288737297E0,2.608176768E-1,5.240281582E0,9.809777923E0
8.936033500E-1,8.288737297E0,2.727817893E-1,5.245067120E0,9.812660443E0
8.959817880E-1,8.307880402E0,2.703889608E-1,5.237888813E0,9.824941027E0
8.983602250E-1,8.315058708E0,2.751746178E-1,5.242674351E0,9.833694969E0
9.007386100E-1,8.312665939E0,2.847459018E-1,5.240281582E0,9.830668660E0
9.031170480E-1,8.350951195E0,2.895315289E-1,5.247459888E0,9.867018275E0
9.054954850E-1,8.384450912E0,3.086741269E-1,5.249852657E0,9.897234449E0
9.078739230E-1,8.408378601E0,3.182454109E-1,5.254638672E0,9.920349712E0
9.102523600E-1,8.425128937E0,3.206382394E-1,5.252245903E0,9.933362649E0
9.126307460E-1,8.439485550E0,3.349951804E-1,5.252245903E0,9.946015541E0
9.150091830E-1,8.449056625E0,3.493520916E-1,5.261816978E0,9.959684867E0
9.173876210E-1,8.449056625E0,3.517449200E-1,5.273781300E0,9.966095100E0
9.197660580E-1,8.439485550E0,3.493520916E-1,5.264209747E0,9.952832134E0
9.221444440E-1,8.451449394E0,3.756731451E-1,5.259424210E0,9.961409046E0
9.245228810E-1,8.422736168E0,4.043870270E-1,5.247459888E0,9.931860284E0
9.269013190E-1,8.401200294E0,4.163511395E-1,5.240281582E0,9.910300990E0
9.292797560E-1,8.403593063E0,4.235295951E-1,5.223531723E0,9.903789040E0
9.316581940E-1,8.386843681E0,4.354937077E-1,5.197210789E0,9.876224060E0
9.340365790E-1,8.346165657E0,4.402793646E-1,5.161318302E0,9.823010420E0
9.364150170E-1,8.286344528E0,4.737788737E-1,5.146961689E0,9.766226840E0
9.387934540E-1,8.271987915E0,4.833501875E-1,5.132604599E0,9.746950366E0
9.411718920E-1,8.255238533E0,5.144568682E-1,5.106283665E0,9.720481571E0
9.435502770E-1,8.255238533E0,5.288137794E-1,5.094319344E0,9.714972816E0
9.459287150E-1,8.238488197E0,5.407779217E-1,5.103890896E0,9.706432445E0
9.483071520E-1,8.221738815E0,5.335994363E-1,5.101497650E0,9.690562201E0
9.506855900E-1,8.209774017E0,5.527420044E-1,5.101497650E0,9.681487046E0
9.530640270E-1,8.216953278E0,5.647061467E-1,5.125426292E0,9.700887015E0
9.554424130E-1,8.240880966E0,5.312066078E-1,5.134997368E0,9.724325042E0
9.578208500E-1,8.238488197E0,4.785645306E-1,5.158925533E0,9.732226079E0
9.601992880E-1,8.224131584E0,4.139583111E-1,5.170889854E0,9.723466649E0
9.625777250E-1,8.238488197E0,4.187439680E-1,5.168497086E0,9.734546544E0
9.649561100E-1,8.257631302E0,4.354937077E-1,5.166104317E0,9.750218628E0
9.673345480E-1,8.260024071E0,4.259224236E-1,5.158925533E0,9.748021349E0
9.697129850E-1,8.264809608E0,3.948157430E-1,5.185246468E0,9.764719057E0
9.720914230E-1,8.291130066E0,4.019941986E-1,5.197210789E0,9.793642687E0
9.744698600E-1,8.271987915E0,3.852444589E-1,5.194818020E0,9.775496490E0
9.768482460E-1,8.274380684E0,3.804588020E-1,5.213960648E0,9.787518084E0
9.792266830E-1,8.279166222E0,3.493520916E-1,5.230710506E0,9.799335315E0
9.816051210E-1,8.291130066E0,3.254238665E-1,5.254638672E0,9.821403466E0
9.839835580E-1,8.303094864E0,3.206382394E-1,5.254638672E0,9.831348879E0
9.863619960E-1,8.343772888E0,3.134597540E-1,5.247459888E0,9.861675228E0
9.887403810E-1,8.355736732E0,3.302095234E-1,5.259424210E0,9.878710325E0
9.911188190E-1,8.365307808E0,3.326023519E-1,5.264209747E0,9.889433923E0
9.934972560E-1,8.367700577E0,3.230310678E-1,5.259424210E0,9.888594694E0
9.958756940E-1,8.370093346E0,3.302095234E-1,5.247459888E0,9.884499796E0
9.982540790E-1,8.370093346E0,3.278166950E-1,5.249852657E0,9.885690635E0
1.000632517E0,8.410771370E0,3.182454109E-1,5.252245903E0,9.921110936E0
1.003010954E0,8.427521706E0,2.799602449E-1,5.264209747E0,9.940493152E0
1.005389392E0,8.449056625E0,2.799602449E-1,5.254638672E0,9.953700978E0
1.007767829E0,8.446663857E0,3.038884699E-1,5.235496044E0,9.942278277E0
1.010146215E0,8.417949677E0,3.397808075E-1,5.216353416E0,9.908969206E0
1.012524652E0,8.394021988E0,3.613162339E-1,5.201996326E0,9.881848022E0
1.014903090E0,8.415556908E0,3.780659735E-1,5.190032482E0,9.894491857E0
1.017281527E0,8.422736168E0,4.091726840E-1,5.185246468E0,9.899327642E0
1.019659965E0,8.408378601E0,4.354937077E-1,5.182853699E0,9.886984269E0
1.022038350E0,8.394021988E0,4.594219327E-1,5.158925533E0,9.863325317E0
1.024416788E0,8.374878883E0,4.570291340E-1,5.151747227E0,9.843168770E0
1.026795225E0,8.365307808E0,4.785645306E-1,5.144568920E0,9.832293125E0
1.029173663E0,8.372486115E0,5.144568682E-1,5.127819061E0,9.831465706E0
1.031552048E0,8.338987350E0,5.575276613E-1,5.127819061E0,9.805308534E0
1.033930485E0,8.281558990E0,5.838487148E-1,5.108676434E0,9.748008696E0
1.036308923E0,8.271987915E0,6.173482537E-1,5.096712112E0,9.735675492E0
1.038687360E0,8.260024071E0,6.460621357E-1,5.077569485E0,9.717361051E0
1.041065746E0,8.248059273E0,6.532405615E-1,5.077569485E0,9.707673092E0
1.043444183E0,8.250452042E0,6.795616150E-1,5.096712112E0,9.721534716E0
1.045822621E0,8.264809608E0,6.604190469E-1,5.096712112E0,9.732404921E0
1.048201058E0,8.276773453E0,6.771687865E-1,5.108676434E0,9.749980064E0
1.050579496E0,8.283951759E0,6.699903607E-1,5.113461971E0,9.758085733E0
1.052957881E0,8.257631302E0,6.364908218E-1,5.118247509E0,9.736018326E0
1.055336319E0,8.267202377E0,6.125625968E-1,5.103890896E0,9.735069099E0
1.057714756E0,8.262416840E0,5.982056856E-1,5.115854740E0,9.736393162E0
1.060093194E0,8.271987915E0,5.958128572E-1,5.123033047E0,9.748140573E0
1.062471631E0,8.281558990E0,5.694918036E-1,5.142175674E0,9.764758619E0
1.064850017E0,8.279166222E0,5.647061467E-1,5.144568920E0,9.763712190E0
1.067228454E0,8.281558990E0,5.718846321E-1,5.154139996E0,9.771204145E0
1.069606892E0,8.298309326E0,5.742774606E-1,5.158925533E0,9.788066455E0
1.071985329E0,8.360522270E0,5.335994363E-1,5.185246468E0,9.852402850E0
1.074363715E0,8.386843681E0,5.024927258E-1,5.199603558E0,9.880664099E0
1.076742152E0,8.405985832E0,4.929214716E-1,5.213960648E0,9.903986825E0
1.079120590E0,8.439485550E0,4.857429862E-1,5.225924492E0,9.938367542E0
1.081499027E0,8.465806961E0,4.570291340E-1,5.228317261E0,9.960625709E0
1.083877465E0,8.484949112E0,4.522434771E-1,5.218746185E0,9.971669737E0
1.086255850E0,8.499305725E0,4.546363056E-1,5.201996326E0,9.975252265E0
1.088634288E0,8.542376518E0,4.331009090E-1,5.173282623E0,9.996130555E0
1.091012725E0,8.549555779E0,4.307080805E-1,5.175675392E0,1.000340088E1
1.093391163E0,8.528019905E0,4.426721931E-1,5.166104317E0,9.980566917E0
1.095769548E0,8.518448830E0,4.307080805E-1,5.163711071E0,9.970626457E0
1.098147985E0,8.520841599E0,4.378865361E-1,5.156532764E0,9.969268595E0
1.100526423E0,8.508877754E0,4.139583111E-1,5.163711071E0,9.961740518E0
1.102904860E0,8.499305725E0,4.211367965E-1,5.139782906E0,9.941474857E0
1.105283298E0,8.480163574E0,4.307080805E-1,5.115854740E0,9.913155573E0
1.107661683E0,8.458627701E0,4.307080805E-1,5.082355499E0,9.877460678E0
1.110040121E0,8.405985832E0,4.378865361E-1,5.077569485E0,9.830262169E0
1.112418558E0,8.379665375E0,4.666004181E-1,5.084748268E0,9.812806566E0
1.114796996E0,8.384450912E0,4.642075896E-1,5.089533806E0,9.819259654E0
1.117175433E0,8.348558426E0,4.809573591E-1,5.113461971E0,9.801899872E0
1.119553819E0,8.307880402E0,4.809573591E-1,5.139782906E0,9.781081999E0
1.121932256E0,8.264809608E0,4.977070987E-1,5.156532764E0,9.754210392E0
1.124310694E0,8.233702660E0,5.024927258E-1,5.149354458E0,9.724310246E0
1.126689131E0,8.202595711E0,5.072783828E-1,5.163711071E0,9.705865226E0
1.129067517E0,8.178668022E0,5.168496966E-1,5.163711071E0,9.686157972E0
1.131445954E0,8.176275253E0,5.455635786E-1,5.178068161E0,9.693374362E0
1.133824392E0,8.161917686E0,5.623133183E-1,5.204389095E0,9.696327266E0
1.136202829E0,8.169096947E0,5.670989752E-1,5.209175110E0,9.705217746E0
1.138581267E0,8.188239098E0,5.599204898E-1,5.221138954E0,9.727335835E0
1.140959652E0,8.185846329E0,5.647061467E-1,5.252245903E0,9.742333405E0
1.143338090E0,8.130811691E0,5.694918036E-1,5.273781300E0,9.708099138E0
1.145716527E0,8.121239662E0,5.623133183E-1,5.280959606E0,9.703569667E0
1.148094965E0,8.152346611E0,5.694918036E-1,5.276174068E0,9.727440001E0
1.150473350E0,8.169096947E0,5.862415433E-1,5.278566837E0,9.743771956E0
1.152851788E0,8.169096947E0,5.958128572E-1,5.288137913E0,9.749540526E0
1.155230225E0,8.183453560E0,5.766702294E-1,5.304887772E0,9.769508431E0
1.157608663E0,8.185846329E0,5.742774606E-1,5.292923450E0,9.764881636E0
1.159987048E0,8.185846329E0,5.982056856E-1,5.273781300E0,9.755957121E0
1.162365485E0,8.214560509E0,5.982056856E-1,5.254638672E0,9.769753424E0
1.164743923E0,8.231309891E0,6.053841114E-1,5.233103275E0,9.772733616E0
1.167122360E0,8.224131584E0,6.149554253E-1,5.235496044E0,9.768568437E0
1.169500798E0,8.250452042E0,6.245267391E-1,5.209175110E0,9.777295018E0
1.171879183E0,8.264809608E0,6.484549642E-1,5.192425251E0,9.782067864E0
1.174257621E0,8.264809608E0,6.412764788E-1,5.197210789E0,9.784135801E0
1.176636058E0,8.271987915E0,6.101697683E-1,5.194818020E0,9.786941579E0
1.179014496E0,8.298309326E0,6.149554253E-1,5.185246468E0,9.804432099E0
1.181392933E0,8.303094864E0,6.556333899E-1,5.180460930E0,9.808588834E0
1.183771319E0,8.322237015E0,6.604190469E-1,5.175675392E0,9.822596297E0
1.186149756E0,8.338987350E0,6.723831892E-1,5.154139996E0,9.826289650E0
1.188528194E0,8.336593628E0,6.795616150E-1,5.156532764E0,9.826007707E0
1.190906631E0,8.331808090E0,6.771687865E-1,5.142175674E0,9.814252610E0
1.193285017E0,8.346165657E0,6.795616150E-1,5.123033047E0,9.816605970E0
1.195663454E0,8.382058144E0,6.628118753E-1,5.127819061E0,9.848489561E0
1.198041892E0,8.379665375E0,6.508477330E-1,5.139782906E0,9.851891335E0
1.200420329E0,8.372486115E0,6.412764788E-1,5.168497086E0,9.860178568E0
1.202798767E0,8.377271652E0,6.340979934E-1,5.175675392E0,9.867541556E0
1.205177152E0,8.408378601E0,6.412764788E-1,5.175675392E0,9.894426814E0
1.207555590E0,8.410771370E0,6.412764788E-1,5.166104317E0,9.891458152E0
1.209934027E0,8.396414757E0,6.245267391E-1,5.178068161E0,9.884442538E0
1.212312465E0,8.391629219E0,6.077769399E-1,5.180460930E0,9.880587493E0
1.214690850E0,8.396414757E0,6.005984545E-1,5.197210789E0,9.893002540E0
1.217069288E0,8.389236450E0,5.670989752E-1,5.218746185E0,9.896272087E0
1.219447725E0,8.394021988E0,5.527420044E-1,5.237888813E0,9.909621995E0
1.221826163E0,8.401200294E0,5.431707501E-1,5.249852657E0,9.921499573E0
1.224204600E0,8.374878883E0,5.264210105E-1,5.257031441E0,9.902125780E0
1.226582985E0,8.370093346E0,5.024927258E-1,5.254638672E0,9.895564114E0
1.228961423E0,8.367700577E0,4.881358147E-1,5.276174068E0,9.904276971E0
1.231339860E0,8.350951195E0,4.618147612E-1,5.271388054E0,9.886313304E0
1.233718298E0,8.336593628E0,4.498506486E-1,5.276174068E0,9.876192167E0
1.236096683E0,8.341380119E0,4.666004181E-1,5.288137913E0,9.887403139E0
1.238475121E0,8.327022552E0,4.594219327E-1,5.273781300E0,9.867276336E0
1.240853558E0,8.315058708E0,4.450650215E-1,5.257031441E0,9.847571465E0
1.243231996E0,8.322237015E0,4.809573591E-1,5.257031441E0,9.855319806E0
1.245610433E0,8.319844246E0,5.024927258E-1,5.242674351E0,9.846722377E0
1.247988819E0,8.334200859E0,5.000999570E-1,5.221138954E0,9.847298914E0
1.250367256E0,8.317451477E0,4.977070987E-1,5.228317261E0,9.836819242E0
1.252745694E0,8.305487633E0,5.024927258E-1,5.245067120E0,9.835870721E0
1.255124131E0,8.319844246E0,5.144568682E-1,5.225924492E0,9.838432850E0
1.257502569E0,8.327022552E0,5.479564071E-1,5.223531723E0,9.845041619E0
1.259880954E0,8.324629784E0,5.694918036E-1,5.211567879E0,9.837897220E0
1.262259392E0,8.315058708E0,5.862415433E-1,5.187639713E0,9.818120302E0
1.264637829E0,8.315058708E0,6.077769399E-1,5.151747227E0,9.800514967E0
1.267016267E0,8.312665939E0,6.101697683E-1,5.149354458E0,9.797375848E0
1.269394652E0,8.300702095E0,6.005984545E-1,5.134997368E0,9.779088492E0
1.271773090E0,8.310273170E0,6.245267391E-1,5.139782906E0,9.791222709E0
1.274151527E0,8.319844246E0,6.412764788E-1,5.125426292E0,9.792907560E0
1.276529965E0,8.334200859E0,6.173482537E-1,5.118247509E0,9.799820426E0
1.278908350E0,8.324629784E0,6.149554253E-1,5.130211830E0,9.797790804E0
1.281286788E0,8.295916557E0,6.412764788E-1,5.111069202E0,9.765065050E0
1.283665225E0,8.298309326E0,6.556333899E-1,5.079962254E0,9.751810566E0
1.286043663E0,8.298309326E0,6.652047038E-1,5.101497650E0,9.763693627E0
1.288422100E0,8.305487633E0,6.340979934E-1,5.120640278E0,9.777738079E0
1.290800485E0,8.319844246E0,6.005984545E-1,5.149354458E0,9.802876012E0
1.293178923E0,8.358129501E0,5.886343718E-1,5.175675392E0,9.848473737E0
1.295557360E0,8.379665375E0,6.101697683E-1,5.201996326E0,9.881895806E0
1.297935798E0,8.370093346E0,6.221339107E-1,5.209175110E0,9.878310511E0
1.300314235E0,8.341380119E0,6.029912829E-1,5.199603558E0,9.847745830E0
1.302692621E0,8.343772888E0,6.101697683E-1,5.178068161E0,9.838863910E0
1.305071058E0,8.322237015E0,5.886343718E-1,5.190032482E0,9.825607183E0
1.307449496E0,8.310273170E0,5.790630579E-1,5.192425251E0,9.816172074E0
1.309827933E0,8.322237015E0,5.862415433E-1,5.221138954E0,9.841930708E0
1.312206371E0,8.322237015E0,5.886343718E-1,5.218746185E0,9.840804393E0
1.314584756E0,8.327022552E0,5.838487148E-1,5.249852657E0,9.861092071E0
1.316963194E0,8.307880402E0,5.670989752E-1,5.252245903E0,9.845230573E0
1.319341631E0,8.291130066E0,5.599204898E-1,5.254638672E0,9.831967061E0
1.321720069E0,8.288737297E0,5.814558864E-1,5.257031441E0,9.832478655E0
1.324098454E0,8.271987915E0,5.886343718E-1,5.254638672E0,9.817509973E0
1.326476892E0,8.240880966E0,5.694918036E-1,5.252245903E0,9.788898152E0
1.328855329E0,8.233702660E0,5.455635786E-1,5.252245903E0,9.781492020E0
1.331233767E0,8.231309891E0,5.551348329E-1,5.264209747E0,9.786446825E0
1.333612152E0,8.228917122E0,5.599204898E-1,5.276174068E0,9.791149103E0
1.335990590E0,8.250452042E0,5.527420044E-1,5.268995285E0,9.804988217E0
1.338369027E0,8.276773453E0,5.383850932E-1,5.252245903E0,9.817378689E0
1.340747465E0,8.281558990E0,5.144568682E-1,5.257031441E0,9.822691319E0
1.343125902E0,8.262416840E0,5.072783828E-1,5.252245903E0,9.803619251E0
1.345504288E0,8.245666504E0,4.785645306E-1,5.254638672E0,9.789344599E0
1.347882725E0,8.262416840E0,4.713860750E-1,5.230710506E0,9.790304861E0
1.350261163E0,8.255238533E0,4.570291340E-1,5.218746185E0,9.777174981E0
1.352639600E0,8.274380684E0,4.642075896E-1,5.197210789E0,9.782221852E0
1.355017985E0,8.298309326E0,4.809573591E-1,5.204389095E0,9.807085373E0
1.357396423E0,8.300702095E0,4.929214716E-1,5.192425251E0,9.803362017E0
1.359774860E0,8.305487633E0,4.833501875E-1,5.182853699E0,9.801873529E0
1.362153298E0,8.319844246E0,4.618147612E-1,5.168497086E0,9.805429275E0
1.364531735E0,8.360522270E0,4.354937077E-1,5.170889854E0,9.840024862E0
1.366910121E0,8.365307808E0,4.426721931E-1,5.175675392E0,9.846925873E0
1.369288558E0,8.382058144E0,4.713860750E-1,5.168497086E0,9.858725358E0
1.371666996E0,8.379665375E0,4.881358147E-1,5.146961689E0,9.846231919E0
1.374045433E0,8.425128937E0,4.474578202E-1,5.125426292E0,9.871829151E0
1.376423871E0,8.417949677E0,4.139583111E-1,5.113461971E0,9.858028787E0
1.378802256E0,8.446663857E0,3.972085714E-1,5.125426292E0,9.888068549E0
1.381180694E0,8.472985268E0,4.354937077E-1,5.099104881E0,9.898585995E0
1.383559131E0,8.494520187E0,4.953143001E-1,5.087141037E0,9.913688184E0
1.385937569E0,8.494520187E0,4.905286431E-1,5.084748268E0,9.912222582E0
1.388316006E0,8.489734650E0,4.689932466E-1,5.094319344E0,9.911994686E0
1.390694392E0,8.477770805E0,4.402793646E-1,5.108676434E0,9.907826131E0
1.393072829E0,8.508877754E0,4.354937077E-1,5.113461971E0,9.936707138E0
1.395451267E0,8.532805443E0,4.642075896E-1,5.101497650E0,9.952363322E0
1.397829704E0,8.547162056E0,4.833501875E-1,5.106283665E0,9.968035889E0
1.400208090E0,8.544769287E0,4.929214716E-1,5.096712112E0,9.961552495E0
1.402586527E0,8.523234367E0,5.120640397E-1,5.101497650E0,9.946507525E0
1.404964965E0,8.492127419E0,5.000999570E-1,5.113461971E0,9.925412908E0
1.407343402E0,8.494520187E0,5.072783828E-1,5.113461971E0,9.927824430E0
1.409721788E0,8.525627136E0,5.144568682E-1,5.115854740E0,9.956051108E0
1.412100225E0,8.492127419E0,5.000999570E-1,5.139782906E0,9.938998761E0
1.414478663E0,8.465806961E0,5.000999570E-1,5.139782906E0,9.916519338E0
1.416857100E0,8.439485550E0,5.120640397E-1,5.127819061E0,9.888460661E0
1.419235538E0,8.434700012E0,5.216353536E-1,5.111069202E0,9.876198466E0
1.421613923E0,8.417949677E0,5.048855543E-1,5.118247509E0,9.864747526E0
1.423992360E0,8.417949677E0,5.551348329E-1,5.132604599E0,9.874901590E0
1.426370798E0,8.394021988E0,5.886343718E-1,5.139782906E0,9.860195935E0
1.428749235E0,8.386843681E0,5.910272002E-1,5.139782906E0,9.854228960E0
1.431127621E0,8.386843681E0,6.053841114E-1,5.156532764E0,9.863846461E0
1.433506058E0,8.370093346E0,6.077769399E-1,5.173282623E0,9.858534806E0
1.435884496E0,8.360522270E0,5.790630579E-1,5.182853699E0,9.853710931E0
1.438262933E0,8.327022552E0,5.455635786E-1,5.180460930E0,9.822123989E0
1.440641371E0,8.353343964E0,5.694918036E-1,5.206781864E0,9.859678173E0
1.443019756E0,8.350951195E0,6.340979934E-1,5.216353416E0,9.866651361E0
1.445398194E0,8.336593628E0,7.154539824E-1,5.211567879E0,9.857540640E0
1.447776631E0,8.317451477E0,7.034898400E-1,5.223531723E0,9.846836075E0
1.450155069E0,8.307880402E0,6.556333899E-1,5.223531723E0,9.835446892E0
1.452533506E0,8.300702095E0,6.675975323E-1,5.233103275E0,9.835278930E0
1.454911892E0,8.324629784E0,7.034898400E-1,5.254638672E0,9.869426861E0
1.457290329E0,8.317451477E0,6.891329288E-1,5.266602516E0,9.868738791E0
1.459668767E0,8.310273170E0,7.130611539E-1,5.273781300E0,9.868225047E0
1.462047204E0,8.305487633E0,7.250252366E-1,5.245067120E0,9.849746976E0
1.464425590E0,8.305487633E0,6.963114142E-1,5.245067120E0,9.847675030E0
1.466804027E0,8.319844246E0,7.393822074E-1,5.245067120E0,9.862921647E0
1.469182465E0,8.341380119E0,8.470591903E-1,5.242674351E0,9.888466308E0
1.471560902E0,8.365307808E0,1.004985452E0,5.245067120E0,9.924671257E0
1.473939340E0,8.293522835E0,1.074377418E0,5.228317261E0,9.862662380E0
1.476317725E0,8.173882484E0,9.475577474E-1,5.163711071E0,9.714634969E0
1.478696163E0,8.126026154E0,8.446664214E-1,5.127819061E0,9.645739512E0
1.481074600E0,8.145168304E0,8.662018180E-1,5.111069202E0,9.654900346E0
1.483453038E0,8.185846329E0,8.518448472E-1,5.111069202E0,9.687969248E0
1.485831423E0,8.243273735E0,9.308080077E-1,5.144568920E0,9.761380783E0
1.488209860E0,8.260024071E0,9.906286001E-1,5.123033047E0,9.770097762E0
1.490588298E0,8.283951759E0,1.045663476E0,5.065605640E0,9.766147109E0
1.492966735E0,8.243273735E0,1.122233868E0,5.010570526E0,9.711683053E0
1.495345173E0,8.188239098E0,1.143769264E0,4.972285271E0,9.647750435E0
1.497723558E0,8.137989998E0,1.117448211E0,4.989035130E0,9.610725427E0
1.500101996E0,8.109275818E0,1.083948612E0,5.039284706E0,9.608833916E0
1.502480433E0,8.111668587E0,1.064806104E0,5.075176716E0,9.627585263E0
1.504858871E0,8.152346611E0,1.076770186E0,5.120640278E0,9.687163989E0
1.507237256E0,8.195417404E0,1.093519926E0,5.134997368E0,9.732874715E0
1.509615694E0,8.202595711E0,1.088734269E0,5.120640278E0,9.730820909E0
1.511994131E0,8.240880966E0,1.119840980E0,5.099104881E0,9.755359220E0
1.514372569E0,8.248059273E0,1.146162033E0,5.027320385E0,9.727184558E0
1.516751006E0,8.238488197E0,1.136590719E0,4.977071285E0,9.692046472E0
1.519129392E0,8.257631302E0,1.158126116E0,4.955535889E0,9.699848801E0
1.521507829E0,8.260024071E0,1.189232826E0,4.934000492E0,9.694670351E0
1.523886267E0,8.252845764E0,1.158126116E0,4.926821709E0,9.681130691E0
1.526264704E0,8.291130066E0,1.153340459E0,4.955535889E0,9.727814139E0
1.528643090E0,8.346165657E0,1.136590719E0,5.000999451E0,9.795933602E0
1.531021527E0,8.374878883E0,1.095912814E0,5.039284706E0,9.835345015E0
1.533399965E0,8.355736732E0,1.076770186E0,5.082355499E0,9.839111128E0
1.535778402E0,8.365307808E0,1.079162955E0,5.077569485E0,9.845033229E0
1.538156840E0,8.391629219E0,1.105484009E0,5.065605640E0,9.864172360E0
1.540535225E0,8.396414757E0,1.107876897E0,5.084748268E0,9.878351934E0
1.542913663E0,8.403593063E0,1.091127157E0,5.115854740E0,9.898631449E0
1.545292100E0,8.377271652E0,1.069591761E0,5.120640278E0,9.876419580E0
1.547670538E0,8.377271652E0,1.071984529E0,5.146961689E0,9.890351146E0
1.550048923E0,8.401200294E0,1.067198873E0,5.161318302E0,9.917574625E0
1.552427360E0,8.379665375E0,1.012163997E0,5.170889854E0,9.898553916E0
1.554805798E0,8.386843681E0,9.667003751E-1,5.206781864E0,9.918882696E0
1.557184235E0,8.403593063E0,9.882357717E-1,5.221138954E0,9.942699749E0
1.559562673E0,8.379665375E0,9.619147182E-1,5.197210789E0,9.907324144E0
1.561941058E0,8.367700577E0,9.260223508E-1,5.144568920E0,9.866231282E0
1.564319496E0,8.312665939E0,8.733802438E-1,5.091926575E0,9.787283807E0
1.566697933E0,8.279166222E0,8.135597110E-1,5.127819061E0,9.772461361E0
1.569076371E0,8.236095428E0,7.345965505E-1,5.178068161E0,9.756294885E0
1.571454756E0,8.171489716E0,6.699903607E-1,5.204389095E0,9.711220166E0
1.573833194E0,8.128418922E0,6.508477330E-1,5.190032482E0,9.665983350E0
1.576211631E0,8.078168869E0,6.269195080E-1,5.149354458E0,9.600296437E0
1.578590069E0,8.070990562E0,6.293123364E-1,5.178068161E0,9.609854971E0
1.580968506E0,8.049455643E0,6.173482537E-1,5.166104317E0,9.584544268E0
1.583346892E0,8.001599312E0,5.479564071E-1,5.175675392E0,9.545337267E0
1.585725329E0,7.958528042E0,5.048855543E-1,5.146961689E0,9.491274553E0
1.588103767E0,7.946564198E0,4.953143001E-1,5.106283665E0,9.458718289E0
1.590482204E0,7.984848976E0,4.570291340E-1,5.113461971E0,9.492849000E0
1.592860642E0,8.020741463E0,4.163511395E-1,5.101497650E0,9.514773784E0
1.595239027E0,8.008777618E0,3.996013701E-1,5.084748268E0,9.494991582E0
1.597617465E0,8.039883614E0,3.804588020E-1,5.058426857E0,9.506427283E0
1.599995902E0,8.082955360E0,3.493520916E-1,5.046463013E0,9.535355430E0
1.602374340E0,8.090133667E0,3.302095234E-1,5.053641319E0,9.544558223E0
1.604752725E0,8.090133667E0,3.445664644E-1,5.022534847E0,9.528632908E0
1.607131163E0,8.135597229E0,3.469592929E-1,4.984249592E0,9.547306794E0
1.609509600E0,8.178668022E0,3.972085714E-1,5.005784988E0,9.597201082E0
1.611888038E0,8.236095428E0,3.972085714E-1,5.010570526E0,9.648671388E0
1.614266475E0,8.310273170E0,4.139583111E-1,5.051248550E0,9.733812900E0
1.616644860E0,8.377271652E0,4.211367965E-1,5.053641319E0,9.792615949E0
1.619023298E0,8.468199730E0,4.857429862E-1,5.108676434E0,9.901763874E0
1.621401735E0,8.504091263E0,5.120640397E-1,5.118247509E0,9.938724030E0
1.623780173E0,8.511270523E0,5.024927258E-1,5.115854740E0,9.943148122E0
1.626158558E0,8.556734085E0,5.192425251E-1,5.161318302E0,1.000632388E1
1.628536996E0,8.595019341E0,5.814558864E-1,5.178068161E0,1.005111130E1
1.630915433E0,8.618947029E0,6.556333899E-1,5.206781864E0,1.009092069E1
1.633293871E0,8.621339798E0,6.675975323E-1,5.233103275E0,1.010735160E1
1.635672256E0,8.645268440E0,6.747759581E-1,5.278566837E0,1.015181052E1
1.638050694E0,8.645268440E0,6.939185858E-1,5.300102234E0,1.016431371E1
1.640429131E0,8.654839516E0,7.274180651E-1,5.328815937E0,1.018978230E1
1.642807569E0,8.657232285E0,7.298108935E-1,5.357530117E0,1.020702815E1
1.645186006E0,8.693124771E0,7.537391186E-1,5.393422127E0,1.025804773E1
1.647564392E0,8.702695847E0,7.872386575E-1,5.393422127E0,1.026867382E1
1.649942829E0,8.700303078E0,7.800601721E-1,5.386243820E0,1.026232868E1
1.652321267E0,8.709874153E0,7.776673436E-1,5.388636589E0,1.027151783E1
1.654699704E0,8.673981667E0,7.657032609E-1,5.386243820E0,1.023893949E1
1.657078142E0,8.633303642E0,7.250252366E-1,5.359922886E0,1.018765757E1
1.659456527E0,8.592626572E0,6.819544435E-1,5.331208706E0,1.013509149E1
1.661834965E0,8.559126854E0,6.340979934E-1,5.297709465E0,1.008595352E1
1.664213402E0,8.516056061E0,5.862415433E-1,5.285745144E0,1.004021871E1
1.666591840E0,8.475378036E0,5.503492355E-1,5.264209747E0,9.992338135E0
1.668970225E0,8.453842163E0,5.431707501E-1,5.237888813E0,9.959817318E0
1.671348663E0,8.439485550E0,5.264210105E-1,5.225924492E0,9.940438734E0
1.673727100E0,8.401200294E0,4.785645306E-1,5.223531723E0,9.904265448E0
1.676105538E0,8.360522270E0,4.642075896E-1,5.194818020E0,9.853930971E0
1.678483975E0,8.329415321E0,4.450650215E-1,5.201996326E0,9.830463277E0
1.680862360E0,8.293522835E0,3.780659735E-1,5.166104317E0,9.778245686E0
1.683240798E0,8.248059273E0,3.134597540E-1,5.123033047E0,9.714638767E0
1.685619235E0,8.209774017E0,2.823530734E-1,5.063212872E0,9.649675500E0
1.687997673E0,8.173882484E0,2.488535494E-1,5.034498692E0,9.603148444E0
1.690376110E0,8.178668022E0,2.416750938E-1,4.989035130E0,9.583292179E0
1.692754496E0,8.193024635E0,2.536391914E-1,4.960321426E0,9.580958938E0
1.695132933E0,8.221738815E0,2.703889608E-1,4.957928658E0,9.604746530E0
1.697511371E0,8.221738815E0,2.703889608E-1,4.936393261E0,9.593647782E0
1.699889808E0,8.228917122E0,2.416750938E-1,4.919643402E0,9.590431432E0
1.702268194E0,8.248059273E0,2.440679073E-1,4.902893543E0,9.598354859E0
1.704646631E0,8.295916557E0,2.656033039E-1,4.867001057E0,9.621874865E0
1.707025069E0,8.341380119E0,3.062812984E-1,4.835894585E0,9.646673362E0
1.709403506E0,8.429914474E0,3.469592929E-1,4.814359188E0,9.714005003E0
1.711781892E0,8.463413239E0,4.091726840E-1,4.828716278E0,9.752604105E0
1.714160329E0,8.520841599E0,4.522434771E-1,4.867001057E0,9.823286873E0
1.716538767E0,8.578269005E0,5.120640397E-1,4.922036171E0,9.903299893E0
1.718917204E0,8.657232285E0,5.312066078E-1,4.991427898E0,1.000720759E1
1.721295642E0,8.695517540E0,5.359922647E-1,5.058426857E0,1.007407540E1
1.723674027E0,8.721838951E0,5.312066078E-1,5.125426292E0,1.013028380E1
1.726052465E0,8.740981102E0,5.718846321E-1,5.204389095E0,1.018908575E1
1.728430902E0,8.740981102E0,5.718846321E-1,5.254638672E0,1.021484362E1
1.730809340E0,8.729017258E0,5.814558864E-1,5.295316696E0,1.022615334E1
1.733187777E0,8.690732002E0,5.934200287E-1,5.314459324E0,1.020413877E1
1.735566163E0,8.702695847E0,5.886343718E-1,5.393422127E0,1.025535995E1
1.737944600E0,8.678768158E0,5.862415433E-1,5.448457241E0,1.026403343E1
1.740323038E0,8.657232285E0,5.934200287E-1,5.486742496E0,1.026665288E1
1.742701475E0,8.623732567E0,6.053841114E-1,5.510670662E0,1.025196296E1
1.745079860E0,8.602197647E0,6.293123364E-1,5.556134224E0,1.025984726E1
1.747458298E0,8.559126854E0,6.364908218E-1,5.594419479E0,1.024506234E1
1.749836735E0,8.480163574E0,6.101697683E-1,5.608776093E0,1.018547253E1
1.752215173E0,8.429914474E0,5.527420044E-1,5.656632900E0,1.016693059E1
1.754593610E0,8.403593063E0,5.240281820E-1,5.682953835E0,1.015829445E1
1.756971996E0,8.348558426E0,5.120640397E-1,5.670989513E0,1.010548165E1
1.759350433E0,8.293522835E0,4.546363056E-1,5.661418438E0,1.005190897E1
1.761728871E0,8.255238533E0,4.019941986E-1,5.651846886E0,1.001268874E1
1.764107308E0,8.233702660E0,4.019941986E-1,5.611168861E0,9.971994525E0
1.766485694E0,8.193024635E0,3.948157430E-1,5.575276852E0,9.917925394E0
1.768864131E0,8.176275253E0,3.326023519E-1,5.544169903E0,9.884327051E0
1.771242569E0,8.188239098E0,3.038884699E-1,5.510670662E0,9.874568288E0
1.773621006E0,8.190631866E0,3.062812984E-1,5.505885124E0,9.873957140E0
1.775999444E0,8.204988480E0,3.014956415E-1,5.467599869E0,9.864450512E0
1.778377829E0,8.204988480E0,2.919243574E-1,5.426921844E0,9.841673460E0
1.780756267E0,8.238488197E0,2.799602449E-1,5.410171986E0,9.860072334E0
1.783134704E0,8.286344528E0,2.943171859E-1,5.398207664E0,9.893976664E0
1.785513142E0,8.315058708E0,2.679961324E-1,5.381458282E0,9.908184319E0
1.787891527E0,8.331808090E0,2.416750938E-1,5.393422127E0,9.928063011E0
1.790269965E0,8.374878883E0,2.368894368E-1,5.393422127E0,9.964121394E0
1.792648402E0,8.384450912E0,2.153540403E-1,5.369493961E0,9.958757948E0
1.795026840E0,8.389236450E0,2.488535494E-1,5.345565796E0,9.950692940E0
1.797405277E0,8.410771370E0,3.014956415E-1,5.300102234E0,9.946007156E0
1.799783663E0,8.417949677E0,3.254238665E-1,5.268995285E0,9.936301564E0
1.802162100E0,8.425128937E0,3.517449200E-1,5.221138954E0,9.918004541E0
1.804540538E0,8.413164139E0,4.163511395E-1,5.190032482E0,9.893993949E0
1.806918975E0,8.391629219E0,4.331009090E-1,5.173282623E0,9.867617263E0
1.809297360E0,8.408378601E0,4.761717021E-1,5.151747227E0,9.872591842E0
1.811675798E0,8.417949677E0,5.120640397E-1,5.168497086E0,9.891281437E0
1.814054235E0,8.441878319E0,5.862415433E-1,5.182853699E0,9.923253557E0
1.816432673E0,8.465806961E0,6.532405615E-1,5.168497086E0,9.940320561E0
1.818811110E0,8.477770805E0,7.226324677E-1,5.166104317E0,9.954065969E0
1.821189496E0,8.484949112E0,7.633104324E-1,5.154139996E0,9.957015785E0
1.823567933E0,8.492127419E0,7.992027402E-1,5.182853699E0,9.980827900E0
1.825946371E0,8.487341881E0,8.446664214E-1,5.211567879E0,9.995442627E0
1.828324808E0,8.504091263E0,8.901300430E-1,5.245067120E0,1.003108313E1
1.830703194E0,8.489734650E0,9.044869542E-1,5.268995285E0,1.003274650E1
1.833081631E0,8.477770805E0,9.068797827E-1,5.273781300E0,1.002535775E1
1.835460069E0,8.444271088E0,9.140582681E-1,5.276174068E0,9.998961422E0
1.837838506E0,8.427521706E0,9.451649189E-1,5.278566837E0,9.988980262E0
1.840216944E0,8.408378601E0,9.762716293E-1,5.280959606E0,9.977097341E0
1.842595329E0,8.384450912E0,1.026520967E0,5.276174068E0,9.959456572E0
1.844973767E0,8.365307808E0,1.043270707E0,5.283352375E0,9.948899477E0
1.847352204E0,8.329415321E0,1.060020447E0,5.295316696E0,9.926891853E0
1.849730642E0,8.283951759E0,1.057627559E0,5.304887772E0,9.893647814E0
1.852109027E0,8.238488197E0,1.043270707E0,5.312066078E0,9.857948446E0
1.854487465E0,8.200202942E0,1.033699393E0,5.304887772E0,9.821084308E0
1.856865902E0,8.161917686E0,1.045663476E0,5.302495003E0,9.789114652E0
1.859244340E0,8.140382767E0,1.057627559E0,5.309673309E0,9.776350970E0
1.861622777E0,8.116454124E0,1.074377418E0,5.302495003E0,9.754361468E0
1.864001163E0,8.104490280E0,1.076770186E0,5.288137913E0,9.736868045E0
1.866379600E0,8.097311974E0,1.086341500E0,5.292923450E0,9.734558937E0
1.868758038E0,8.066205025E0,1.095912814E0,5.292923450E0,9.709774820E0
1.871136475E0,8.044670105E0,1.076770186E0,5.316852093E0,9.702838106E0
1.873514860E0,8.049455643E0,1.086341500E0,5.326423168E0,9.713117819E0
1.875893298E0,8.044670105E0,1.098305583E0,5.326423168E0,9.710498237E0
1.878271735E0,8.061419487E0,1.083948612E0,5.335994720E0,9.728014617E0
1.880650173E0,8.080561638E0,1.083948612E0,5.343173027E0,9.747816113E0
1.883028610E0,8.099704742E0,1.076770186E0,5.357530117E0,9.770761480E0
1.885406996E0,8.104490280E0,1.069591761E0,5.379065514E0,9.785761853E0
1.887785433E0,8.133204460E0,1.071984529E0,5.381458282E0,9.811129337E0
1.890163871E0,8.154739380E0,1.079162955E0,5.374279499E0,9.825845876E0
1.892542308E0,8.173882484E0,1.107876897E0,5.383851051E0,9.850157269E0
1.894920746E0,8.195417404E0,1.100698471E0,5.402993679E0,9.877689216E0
1.897299131E0,8.212167740E0,1.103091240E0,5.393422127E0,9.886632971E0
1.899677569E0,8.226524353E0,1.105484009E0,5.412564754E0,9.909271166E0
1.902056006E0,8.245666504E0,1.115055323E0,5.405386448E0,9.922326699E0
1.904434444E0,8.267202377E0,1.100698471E0,5.417350292E0,9.945142355E0
1.906812829E0,8.276773453E0,1.098305583E0,5.446064472E0,9.968493977E0
1.909191267E0,8.274380684E0,1.122233868E0,5.441278458E0,9.966558875E0
1.911569704E0,8.295916557E0,1.129412293E0,5.438885689E0,9.983951181E0
1.913948142E0,8.310273170E0,1.136590719E0,5.446064472E0,1.000060483E1
1.916326579E0,8.298309326E0,1.162911773E0,5.453242779E0,9.997607627E0
1.918704965E0,8.303094864E0,1.170090318E0,5.450850010E0,1.000111301E1
1.921083402E0,8.288737297E0,1.165304661E0,5.419743061E0,9.971695732E0
1.923461840E0,8.298309326E0,1.182054400E0,5.412564754E0,9.977727572E0
1.925840277E0,8.298309326E0,1.189232826E0,5.395814896E0,9.969505042E0
1.928218663E0,8.283951759E0,1.194018483E0,5.400600910E0,9.960724225E0
1.930597100E0,8.262416840E0,1.213161111E0,5.410171986E0,9.950339332E0
1.932975538E0,8.238488197E0,1.213161111E0,5.391029358E0,9.920062762E0
1.935353975E0,8.224131584E0,1.251446247E0,5.371886730E0,9.902505999E0
1.937732413E0,8.219346046E0,1.268195987E0,5.364708424E0,9.896770532E0
1.940110798E0,8.202595711E0,1.294517040E0,5.328815937E0,9.866844990E0
1.942489235E0,8.176275253E0,1.308874011E0,5.316852093E0,9.840403669E0
1.944867673E0,8.149953842E0,1.316052437E0,5.302495003E0,9.811737609E0
1.947246110E0,8.133204460E0,1.323230863E0,5.295316696E0,9.794913661E0
1.949624548E0,8.133204460E0,1.323230863E0,5.278566837E0,9.785868513E0
1.952002933E0,8.116454124E0,1.363908887E0,5.245067120E0,9.759498148E0
1.954381371E0,8.114061356E0,1.402194023E0,5.201996326E0,9.739861680E0
1.956759808E0,8.090133667E0,1.428515077E0,5.156532764E0,9.699523093E0
1.959138246E0,8.063812256E0,1.459621787E0,5.149354458E0,9.678399413E0
1.961516631E0,8.032705307E0,1.469193101E0,5.132604599E0,9.645025292E0
1.963895069E0,7.984848976E0,1.488335729E0,5.123033047E0,9.603042435E0
1.966273506E0,7.958528042E0,1.507478237E0,5.089533806E0,9.566295709E0
1.968651944E0,7.946564198E0,1.521835208E0,5.096712112E0,9.562444212E0
1.971030329E0,7.917850018E0,1.538584948E0,5.087141037E0,9.536173052E0
1.973408767E0,7.893921852E0,1.552941918E0,5.077569485E0,9.513534710E0
1.975787204E0,7.886743546E0,1.586441398E0,5.060820103E0,9.504179090E0
1.978165642E0,7.848458290E0,1.605584025E0,5.053641319E0,9.471826021E0
1.980544079E0,7.819744587E0,1.641476393E0,5.036891460E0,9.445270019E0
1.982922465E0,7.817351341E0,1.663011789E0,5.039284706E0,9.448332157E0
1.985300902E0,7.798209190E0,1.648654819E0,5.041677475E0,9.431258720E0
1.987679340E0,7.822137356E0,1.648654819E0,5.039284706E0,9.449777028E0
1.990057777E0,7.843672752E0,1.658226132E0,5.036891460E0,9.468008858E0
1.992436215E0,7.850851059E0,1.660618901E0,5.051248550E0,9.482016104E0
1.994814600E0,7.848458290E0,1.667797327E0,5.079962254E0,9.496623713E0
1.997193038E0,7.877171993E0,1.674975872E0,5.099104881E0,9.531854666E0
1.999571475E0,7.891529083E0,1.667797327E0,5.091926575E0,9.538631738E0
2.001949913E0,7.905886173E0,1.703689694E0,5.089533806E0,9.555571627E0
2.004328298E0,7.963313580E0,1.725225091E0,5.091926575E0,9.608250674E0
2.006706735E0,7.992027760E0,1.720439434E0,5.115854740E0,9.643878332E0
2.009085173E0,8.001599312E0,1.701296926E0,5.115854740E0,9.648418135E0
2.011463610E0,8.035098076E0,1.713261008E0,5.146961689E0,9.694806806E0
2.013842048E0,8.059026718E0,1.720439434E0,5.163711071E0,9.724800024E0
2.016220433E0,8.070990562E0,1.720439434E0,5.166104317E0,9.735986561E0
2.018598871E0,8.126026154E0,1.708475351E0,5.178068161E0,9.785886723E0
2.020977308E0,8.161917686E0,1.703689694E0,5.213960648E0,9.833862137E0
2.023355746E0,8.173882484E0,1.720439434E0,5.218746185E0,9.849242532E0
2.025734131E0,8.169096947E0,1.703689694E0,5.225924492E0,9.846166274E0
2.028112569E0,8.178668022E0,1.696511269E0,5.240281582E0,9.860492491E0
2.030491006E0,8.207381248E0,1.667797327E0,5.252245903E0,9.885784840E0
2.032869444E0,8.250452042E0,1.658226132E0,5.268995285E0,9.928846061E0
2.035247829E0,8.228917122E0,1.665404558E0,5.278566837E0,9.917253511E0
2.037626267E0,8.243273735E0,1.651047587E0,5.292923450E0,9.934412849E0
2.040004704E0,8.255238533E0,1.636690736E0,5.292923450E0,9.941969546E0
2.042383142E0,8.255238533E0,1.627119422E0,5.290530682E0,9.939124496E0
2.044761579E0,8.240880966E0,1.610369682E0,5.307280540E0,9.933410107E0
2.047139965E0,8.248059273E0,1.588834286E0,5.309673309E0,9.937178010E0
2.049518402E0,8.257631302E0,1.567298889E0,5.324030399E0,9.949381901E0
2.051896840E0,8.252845764E0,1.540977836E0,5.335994720E0,9.947709061E0
2.054275277E0,8.248059273E0,1.519442320E0,5.362315655E0,9.954577636E0
2.056653715E0,8.233702660E0,1.505085468E0,5.350351334E0,9.934052604E0
2.059032100E0,8.226524353E0,1.509871125E0,5.355136871E0,9.931410003E0
2.061410538E0,8.214560509E0,1.495514154E0,5.357530117E0,9.920619733E0
2.063788975E0,8.200202942E0,1.464407444E0,5.367101192E0,9.909268018E0
2.066167413E0,8.166703224E0,1.430907965E0,5.374279499E0,9.880557641E0
2.068545798E0,8.173882484E0,1.397408366E0,5.381458282E0,9.885605609E0
2.070924235E0,8.157132149E0,1.378265858E0,5.400600910E0,9.879519819E0
2.073302673E0,8.142775536E0,1.363908887E0,5.417350292E0,9.874853167E0
2.075681110E0,8.126026154E0,1.328016520E0,5.412564754E0,9.853516436E0
2.078059548E0,8.082955360E0,1.311266780E0,5.424529076E0,9.822377697E0
2.080437933E0,8.066205025E0,1.287338614E0,5.429314613E0,9.808076334E0
2.082816371E0,8.042277336E0,1.246660590E0,5.434100151E0,9.785797455E0
2.085194808E0,8.049455643E0,1.208375454E0,5.436492920E0,9.788225715E0
2.087573246E0,8.061419487E0,1.179661512E0,5.438885689E0,9.795895210E0
2.089951631E0,8.047062874E0,1.158126116E0,5.434100151E0,9.778850722E0
2.092330069E0,8.025527000E0,1.150947690E0,5.441278458E0,9.764285712E0
2.094708506E0,8.030312538E0,1.141376376E0,5.424529076E0,9.757775114E0
2.097086944E0,8.025527000E0,1.127019525E0,5.410171986E0,9.744188912E0
2.099465381E0,8.025527000E0,1.119840980E0,5.398207664E0,9.736722931E0
2.101843767E0,8.013563156E0,1.107876897E0,5.391029358E0,9.721511365E0
2.104222204E0,8.023134232E0,1.105484009E0,5.376672268E0,9.721182154E0
2.106600642E0,8.042277336E0,1.122233868E0,5.367101192E0,9.733622595E0
2.108979079E0,8.039883614E0,1.105484009E0,5.362315655E0,9.727088598E0
2.111357465E0,8.068597794E0,1.103091240E0,5.340780258E0,9.738737824E0
2.113735902E0,8.080561638E0,1.112662554E0,5.321637630E0,9.739266985E0
2.116114340E0,8.097311974E0,1.105484009E0,5.312066078E0,9.747133020E0
2.118492777E0,8.097311974E0,1.081555843E0,5.314459324E0,9.745753031E0
2.120871215E0,8.121239662E0,1.057627559E0,5.300102234E0,9.755213652E0
2.123249600E0,8.145168304E0,1.083948612E0,5.295316696E0,9.775432994E0
2.125628038E0,8.118846893E0,1.081555843E0,5.292923450E0,9.751947322E0
2.128006475E0,8.130811691E0,1.081555843E0,5.295316696E0,9.763208526E0
2.130384913E0,8.123632431E0,1.074377418E0,5.297709465E0,9.757736228E0
2.132763350E0,8.121239662E0,1.091127157E0,5.304887772E0,9.761502261E0
2.135141735E0,8.142775536E0,1.134197950E0,5.283352375E0,9.772666511E0
2.137520173E0,8.121239662E0,1.124626637E0,5.300102234E0,9.762704667E0
2.139898610E0,8.111668587E0,1.124626637E0,5.300102234E0,9.754744283E0
2.142277048E0,8.085348129E0,1.138983607E0,5.314459324E0,9.742361928E0
2.144655433E0,8.114061356E0,1.158126116E0,5.309673309E0,9.765852673E0
2.147033871E0,8.133204460E0,1.167697430E0,5.297709465E0,9.776413333E0
2.149412308E0,8.118846893E0,1.170090318E0,5.290530682E0,9.760865798E0
2.151790746E0,8.118846893E0,1.167697430E0,5.273781300E0,9.751510722E0
2.154169183E0,8.102097511E0,1.177268744E0,5.271388054E0,9.737426651E0
2.156547569E0,8.111668587E0,1.189232826E0,5.276174068E0,9.749433562E0
2.158926006E0,8.106883049E0,1.167697430E0,5.285745144E0,9.748034252E0
2.161304444E0,8.111668587E0,1.127019525E0,5.288137913E0,9.748525163E0
2.163682881E0,8.126026154E0,1.117448211E0,5.307280540E0,9.769760401E0
2.166061267E0,8.128418922E0,1.112662554E0,5.316852093E0,9.776406718E0
2.168439704E0,8.142775536E0,1.083948612E0,5.321637630E0,9.787725225E0
2.170818142E0,8.147561073E0,1.069591761E0,5.335994720E0,9.797939459E0
2.173196579E0,8.166703224E0,1.067198873E0,5.350351334E0,9.821416109E0
2.175574965E0,8.190631866E0,1.062413216E0,5.335994720E0,9.833006248E0
2.177953402E0,8.176275253E0,1.026520967E0,5.345565796E0,9.822438393E0
2.180331840E0,8.178668022E0,9.954141974E-1,5.350351334E0,9.823834253E0
2.182710277E0,8.176275253E0,9.643075466E-1,5.383851051E0,9.837032998E0
2.185088715E0,8.164310455E0,9.260223508E-1,5.412564754E0,9.839173737E0
2.187467152E0,8.166703224E0,9.236295223E-1,5.448457241E0,9.860721036E0
2.189845538E0,8.181060791E0,9.068797827E-1,5.453242779E0,9.873704645E0
2.192223975E0,8.200202942E0,8.685946465E-1,5.443671703E0,9.880857582E0
2.194602413E0,8.193024635E0,8.709874153E-1,5.448457241E0,9.877750658E0
2.196980850E0,8.176275253E0,8.973084688E-1,5.443671703E0,9.863579529E0
2.199359235E0,8.178668022E0,9.164510965E-1,5.431707382E0,9.860727068E0
2.201737673E0,8.185846329E0,9.260223508E-1,5.422136307E0,9.862310056E0
2.204116110E0,8.169096947E0,9.212366939E-1,5.419743061E0,9.846645968E0
2.206494548E0,8.161917686E0,9.595218897E-1,5.419743061E0,9.844348502E0
2.208872985E0,8.142775536E0,9.690931439E-1,5.434100151E0,9.837346156E0
2.211251371E0,8.135597229E0,9.714859724E-1,5.446064472E0,9.838259272E0
2.213629808E0,8.109275818E0,9.834501147E-1,5.460421085E0,9.825666738E0
2.216008246E0,8.085348129E0,1.016949654E0,5.448457241E0,9.802689798E0
2.218386683E0,8.085348129E0,1.045663476E0,5.453242779E0,9.808370062E0
2.220765069E0,8.070990562E0,1.057627559E0,5.462814331E0,9.803152816E0
2.223143506E0,8.075776100E0,1.071984529E0,5.472385406E0,9.813985556E0
2.225521944E0,8.087740898E0,1.098305583E0,5.462814331E0,9.821413768E0
2.227900381E0,8.092526436E0,1.153340459E0,5.467599869E0,9.834318820E0
2.230278767E0,8.087740898E0,1.153340459E0,5.467599869E0,9.830381243E0
2.232657204E0,8.078168869E0,1.155733347E0,5.458028316E0,9.817464283E0
2.235035642E0,8.063812256E0,1.184447169E0,5.446064472E0,9.802428344E0
2.237414079E0,8.044670105E0,1.198804140E0,5.462814331E0,9.797764484E0
2.239792517E0,8.054241180E0,1.225125194E0,5.462814331E0,9.808877262E0
2.242170902E0,8.066205025E0,1.232303619E0,5.477170944E0,9.827595701E0
2.244549340E0,8.049455643E0,1.272981644E0,5.484349728E0,9.823049951E0
2.246927777E0,8.080561638E0,1.263410330E0,5.479563713E0,9.844658477E0
2.249306215E0,8.094919205E0,1.280160069E0,5.496313572E0,9.867927321E0
2.251684652E0,8.121239662E0,1.311266780E0,5.501099110E0,9.896264226E0
2.254063038E0,8.128418922E0,1.284945726E0,5.513063431E0,9.905359564E0
2.256441475E0,8.116454124E0,1.275374413E0,5.539384365E0,9.908995236E0
2.258819913E0,8.130811691E0,1.294517040E0,5.529813290E0,9.917898373E0
2.261198350E0,8.145168304E0,1.294517040E0,5.527420521E0,9.928339171E0
2.263576735E0,8.173882484E0,1.270588875E0,5.544169903E0,9.958140934E0
2.265955173E0,8.195417404E0,1.232303619E0,5.568098068E0,9.984345484E0
2.268333610E0,8.204988480E0,1.217946768E0,5.596812248E0,1.000647478E1
2.270712048E0,8.212167740E0,1.182054400E0,5.627918720E0,1.002548855E1
2.273090485E0,8.209774017E0,1.148554921E0,5.647061348E0,1.003039728E1
2.275468871E0,8.216953278E0,1.136590719E0,5.649454117E0,1.003625884E1
2.277847308E0,8.183453560E0,1.088734269E0,5.642275810E0,9.999476526E0
2.280225746E0,8.181060791E0,1.064806104E0,5.608776093E0,9.976068212E0
2.282604183E0,8.159524918E0,1.069591761E0,5.613562107E0,9.961624011E0
2.284982569E0,8.176275253E0,1.052842021E0,5.603990555E0,9.968182556E0
2.287361006E0,8.169096947E0,1.000199914E0,5.606383324E0,9.958216646E0
2.289739444E0,8.142775536E0,9.858429432E-1,5.627918720E0,9.947368941E0
2.292117881E0,8.149953842E0,9.499505758E-1,5.625525951E0,9.948401678E0
2.294496319E0,8.142775536E0,8.829515576E-1,5.615954876E0,9.930928760E0
2.296874704E0,8.126026154E0,8.231309652E-1,5.606383324E0,9.906633112E0
2.299253142E0,8.121239662E0,7.992027402E-1,5.596812248E0,9.895330516E0
2.301631579E0,8.130811691E0,7.704889178E-1,5.580062389E0,9.891453291E0
2.304010017E0,8.121239662E0,7.345965505E-1,5.582455158E0,9.882204781E0
2.306388402E0,8.104490280E0,6.771687865E-1,5.577669621E0,9.861628601E0
2.308766840E0,8.123632431E0,6.460621357E-1,5.580062389E0,9.876633861E0
2.311145277E0,8.118846893E0,6.269195080E-1,5.582455158E0,9.872816647E0
2.313523715E0,8.121239662E0,5.886343718E-1,5.584847927E0,9.873780960E0
2.315902152E0,8.130811691E0,5.599204898E-1,5.584847927E0,9.879986644E0
2.318280538E0,8.130811691E0,5.264210105E-1,5.565705299E0,9.867334661E0
2.320658975E0,8.133204460E0,4.785645306E-1,5.582455158E0,9.876327475E0
2.323037413E0,8.116454124E0,4.426721931E-1,5.587240696E0,9.863571606E0
2.325415850E0,8.118846893E0,4.211367965E-1,5.582455158E0,9.861888089E0
2.327794288E0,8.140382767E0,3.900300860E-1,5.584847927E0,9.879700472E0
2.330172673E0,8.137989998E0,3.756731451E-1,5.575276852E0,9.871763950E0
2.332551110E0,8.123632431E0,3.828516304E-1,5.572884083E0,9.858854713E0
2.334929548E0,8.142775536E0,3.876372576E-1,5.563312531E0,9.869422596E0
2.337307985E0,8.118846893E0,3.948157430E-1,5.541777134E0,9.837827410E0
2.339686371E0,8.104490280E0,3.876372576E-1,5.553741455E0,9.832449822E0
2.342064808E0,8.116454124E0,3.661018610E-1,5.544169903E0,9.836090587E0
2.344443246E0,8.121239662E0,3.206382394E-1,5.551348686E0,9.842500433E0
2.346821683E0,8.106883049E0,3.397808075E-1,5.553741455E0,9.832652130E0
2.349200121E0,8.104490280E0,3.541377485E-1,5.541777134E0,9.824432302E0
2.351578506E0,8.116454124E0,3.397808075E-1,5.525027275E0,9.824367916E0
2.353956944E0,8.092526436E0,2.823530734E-1,5.532206059E0,9.806834925E0
2.356335381E0,8.078168869E0,2.703889608E-1,5.551348686E0,9.805477791E0
2.358713819E0,8.073383331E0,2.584248483E-1,5.541777134E0,9.795794793E0
2.361092204E0,8.068597794E0,2.321037948E-1,5.541777134E0,9.791191773E0
2.363470642E0,8.054241180E0,2.177468538E-1,5.544169903E0,9.780390309E0
2.365849079E0,8.042277336E0,1.914258152E-1,5.565705299E0,9.782225926E0
2.368227517E0,8.037490845E0,1.842473447E-1,5.560919762E0,9.775430157E0
2.370605954E0,8.027919769E0,1.842473447E-1,5.560919762E0,9.767562209E0
2.372984340E0,8.025527000E0,1.914258152E-1,5.548955917E0,9.758926132E0
2.375362777E0,8.020741463E0,1.866401732E-1,5.553741455E0,9.757621243E0
2.377741215E0,8.030312538E0,1.818545163E-1,5.532206059E0,9.753168429E0
2.380119652E0,8.051848412E0,1.651047617E-1,5.541777134E0,9.776032745E0
2.382498038E0,8.051848412E0,1.435693651E-1,5.539384365E0,9.774336507E0
2.384876475E0,8.059026718E0,1.387837082E-1,5.541777134E0,9.781537014E0
2.387254913E0,8.087740898E0,1.387837082E-1,5.541777134E0,9.805208185E0
2.389633350E0,8.068597794E0,1.220339537E-1,5.544169903E0,9.790555784E0
2.392011788E0,8.073383331E0,1.148554832E-1,5.563312531E0,9.805261675E0
2.394390173E0,8.102097511E0,9.092725813E-2,5.548955917E0,9.820548031E0
2.396768610E0,8.109275818E0,8.614161611E-2,5.553741455E0,9.829131132E0
2.399147048E0,8.114061356E0,9.571290761E-2,5.551348686E0,9.831816967E0
2.401525485E0,8.109275818E0,1.052841991E-1,5.546562672E0,9.825263178E0
2.403903923E0,8.126026154E0,1.172483116E-1,5.539384365E0,9.835183138E0
2.406282308E0,8.137989998E0,1.100698411E-1,5.534598827E0,9.842295502E0
2.408660746E0,8.130811691E0,1.148554832E-1,5.560919762E0,9.851249623E0
2.411039183E0,8.159524918E0,1.411765367E-1,5.565705299E0,9.877998440E0
2.413417621E0,8.173882484E0,1.435693651E-1,5.565705299E0,9.889895981E0
2.415796006E0,8.173882484E0,1.483550072E-1,5.572884083E0,9.894008342E0
2.418174444E0,8.169096947E0,1.746760458E-1,5.587240696E0,9.898581476E0
2.420552881E0,8.185846329E0,2.057827413E-1,5.582455158E0,9.910309392E0
2.422931319E0,8.183453560E0,2.297109663E-1,5.577669621E0,9.906163621E0
2.425309756E0,8.176275253E0,2.488535494E-1,5.589633465E0,9.907442020E0
2.427688142E0,8.185846329E0,2.727817893E-1,5.601597786E0,9.922720785E0
2.430066579E0,8.207381248E0,2.823530734E-1,5.611168861E0,9.946157359E0
2.432445017E0,8.195417404E0,2.991028428E-1,5.606383324E0,9.934075846E0
2.434823454E0,8.185846329E0,3.110669553E-1,5.606383324E0,9.926549085E0
2.437201892E0,8.183453560E0,3.278166950E-1,5.611168861E0,9.927819093E0
2.439580277E0,8.164310455E0,3.493520916E-1,5.623133183E0,9.919558402E0
2.441958715E0,8.188239098E0,3.541377485E-1,5.623133183E0,9.939431566E0
2.444337152E0,8.193024635E0,3.637090325E-1,5.606383324E0,9.934257441E0
2.446715590E0,8.166703224E0,3.804588020E-1,5.603990555E0,9.911836388E0
2.449093975E0,8.166703224E0,3.996013701E-1,5.594419479E0,9.907181845E0
2.451472413E0,8.183453560E0,4.307080805E-1,5.584847927E0,9.916902137E0
2.453850850E0,8.164310455E0,4.450650215E-1,5.570491314E0,9.893655622E0
2.456229288E0,8.145168304E0,4.689932466E-1,5.575276852E0,9.881671587E0
2.458607673E0,8.140382767E0,5.000999570E-1,5.565705299E0,9.873854720E0
2.460986110E0,8.130811691E0,5.072783828E-1,5.548955917E0,9.856893115E0
2.463364548E0,8.149953842E0,5.168496966E-1,5.548955917E0,9.873185555E0
2.465742985E0,8.166703224E0,5.527420044E-1,5.520241737E0,9.872873650E0
2.468121423E0,8.176275253E0,5.670989752E-1,5.525027275E0,9.884280685E0
2.470499808E0,8.181060791E0,5.718846321E-1,5.532206059E0,9.892528068E0
2.472878246E0,8.178668022E0,5.910272002E-1,5.510670662E0,9.879646497E0
2.475256683E0,8.195417404E0,6.245267391E-1,5.505885124E0,9.892910142E0
2.477635121E0,8.193024635E0,6.652047038E-1,5.517848969E0,9.900242786E0
2.480013558E0,8.193024635E0,7.082754970E-1,5.503491879E0,9.895237729E0
2.482391944E0,8.231309891E0,8.135597110E-1,5.493920803E0,9.929728481E0
2.484770381E0,8.250452042E0,7.537391186E-1,5.460421085E0,9.922413012E0
2.487148819E0,8.228917122E0,6.843472719E-1,5.486742496E0,9.914017925E0
2.489527256E0,8.226524353E0,6.867401004E-1,5.520241737E0,9.930779614E0
2.491905642E0,8.233702660E0,7.513462901E-1,5.527420521E0,9.945388798E0
2.494284079E0,8.260024071E0,8.063812256E-1,5.532206059E0,9.974144184E0
2.496662517E0,8.262416840E0,8.231309652E-1,5.505885124E0,9.962923648E0
2.499040954E0,8.252845764E0,8.350951076E-1,5.477170944E0,9.940133228E0
2.501419392E0,8.238488197E0,8.590233326E-1,5.453242779E0,9.917079493E0
2.503797777E0,8.248059273E0,8.614161611E-1,5.465207100E0,9.931817971E0
2.506176215E0,8.257631302E0,8.662018180E-1,5.469992638E0,9.942816490E0
2.508554652E0,8.228917122E0,8.877372146E-1,5.465207100E0,9.918247981E0
2.510933090E0,8.200202942E0,9.092726111E-1,5.436492920E0,9.880564773E0
2.513311527E0,8.166703224E0,9.092726111E-1,5.412564754E0,9.839597322E0
2.515689913E0,8.135597229E0,9.068797827E-1,5.388636589E0,9.800396803E0
2.518068350E0,8.126026154E0,9.595218897E-1,5.376672268E0,9.790893115E0
2.520446788E0,8.121239662E0,1.016949654E0,5.362315655E0,9.784842841E0
2.522825225E0,8.109275818E0,1.028913736E0,5.355136871E0,9.772231510E0
2.525203610E0,8.090133667E0,1.062413216E0,5.362315655E0,9.763883130E0
2.527582048E0,8.073383331E0,1.086341500E0,5.352744102E0,9.747385583E0
2.529960485E0,8.070990562E0,1.117448211E0,5.347958565E0,9.746293653E0
2.532338923E0,8.051848412E0,1.136590719E0,5.343173027E0,9.730035935E0
2.534717360E0,8.030312538E0,1.165304661E0,5.350351334E0,9.719573746E0
2.537095746E0,8.035098076E0,1.167697430E0,5.340780258E0,9.718551957E0
2.539474183E0,8.030312538E0,1.162911773E0,5.340780258E0,9.714021671E0
2.541852621E0,8.030312538E0,1.153340459E0,5.350351334E0,9.718146586E0
2.544231058E0,8.020741463E0,1.177268744E0,5.357530117E0,9.717066649E0
2.546609496E0,8.027919769E0,1.201196909E0,5.350351334E0,9.721966325E0
2.548987881E0,8.011170387E0,1.217946768E0,5.345565796E0,9.707590792E0
2.551366319E0,8.032705307E0,1.215553880E0,5.338387489E0,9.721126826E0
2.553744756E0,8.039883614E0,1.220339537E0,5.347958565E0,9.732914153E0
2.556123194E0,8.042277336E0,1.256231904E0,5.357530117E0,9.744715096E0
2.558501579E0,8.049455643E0,1.272981644E0,5.345565796E0,9.746245025E0
2.560880017E0,8.073383331E0,1.232303619E0,5.350351334E0,9.763418972E0
2.563258454E0,8.087740898E0,1.229910851E0,5.350351334E0,9.774993244E0
2.565636892E0,8.099704742E0,1.222732425E0,5.343173027E0,9.780071037E0
2.568015329E0,8.104490280E0,1.225125194E0,5.352744102E0,9.789564028E0
2.570393715E0,8.126026154E0,1.220339537E0,5.352744102E0,9.806803713E0
2.572772152E0,8.126026154E0,1.239482164E0,5.347958565E0,9.806593593E0
2.575150590E0,8.130811691E0,1.244267821E0,5.345565796E0,9.809861102E0
2.577529027E0,8.159524918E0,1.208375454E0,5.352744102E0,9.833101624E0
2.579907413E0,8.178668022E0,1.196411371E0,5.352744102E0,9.847531681E0
2.582285850E0,8.200202942E0,1.184447169E0,5.371886730E0,9.874381521E0
2.584664288E0,8.204988480E0,1.158126116E0,5.362315655E0,9.870031471E0
2.587042725E0,8.202595711E0,1.153340459E0,5.355136871E0,9.863582590E0
2.589421163E0,8.188239098E0,1.141376376E0,5.331208706E0,9.837265159E0
2.591799548E0,8.188239098E0,1.127019525E0,5.333601475E0,9.836906893E0
2.594177985E0,8.212167740E0,1.129412293E0,5.335994720E0,9.858403054E0
2.596556423E0,8.224131584E0,1.093519926E0,5.345565796E0,9.869508591E0
2.598934860E0,8.240880966E0,1.103091240E0,5.347958565E0,9.885827744E0
2.601313246E0,8.224131584E0,1.091127157E0,5.350351334E0,9.871836616E0
2.603691683E0,8.224131584E0,1.086341500E0,5.350351334E0,9.871308807E0
2.606070121E0,8.250452042E0,1.064806104E0,5.357530117E0,9.894791553E0
2.608448558E0,8.269595146E0,1.043270707E0,5.345565796E0,9.902004410E0
2.610826944E0,8.281558990E0,1.038485050E0,5.335994720E0,9.906336869E0
2.613205381E0,8.257631302E0,1.007378340E0,5.347958565E0,9.889587790E0
2.615583819E0,8.260024071E0,1.000199914E0,5.340780258E0,9.886977864E0
2.617962256E0,8.257631302E0,9.906286001E-1,5.371886730E0,9.900857881E0
2.620340694E0,8.250452042E0,9.810572863E-1,5.388636589E0,9.903021588E0
2.622719079E0,8.248059273E0,9.619147182E-1,5.388636589E0,9.899149761E0
2.625097517E0,8.216953278E0,9.379864931E-1,5.383851051E0,9.868332786E0
2.627475954E0,8.188239098E0,9.355936646E-1,5.362315655E0,9.832447519E0
2.629854392E0,8.195417404E0,9.403793216E-1,5.364708424E0,9.840186795E0
2.632232829E0,8.188239098E0,9.403793216E-1,5.367101192E0,9.835514628E0
2.634611215E0,8.183453560E0,9.355936646E-1,5.383851051E0,9.840228646E0
2.636989652E0,8.176275253E0,9.332008362E-1,5.398207664E0,9.841899553E0
2.639368090E0,8.147561073E0,9.308080077E-1,5.402993679E0,9.820463110E0
2.641746527E0,8.099704742E0,9.140582681E-1,5.417350292E0,9.787155032E0
2.644124913E0,8.082955360E0,8.901300430E-1,5.419743061E0,9.772415960E0
2.646503350E0,8.073383331E0,9.068797827E-1,5.424529076E0,9.768698227E0
2.648881788E0,8.073383331E0,9.020941257E-1,5.438885689E0,9.776234948E0
2.651260225E0,8.042277336E0,9.212366939E-1,5.453242779E0,9.760366725E0
2.653638663E0,8.032705307E0,9.212366939E-1,5.458028316E0,9.755157851E0
2.656017100E0,8.030312538E0,9.236295223E-1,5.481956482E0,9.766824347E0
2.658395485E0,8.015955925E0,9.188438654E-1,5.508277893E0,9.769388353E0
2.660773923E0,7.984848976E0,9.116654396E-1,5.532206059E0,9.756754118E0
2.663152360E0,7.989634991E0,9.068797827E-1,5.532206059E0,9.760225515E0
2.665530798E0,7.999206066E0,9.116654396E-1,5.536991596E0,9.771218322E0
2.667909183E0,7.996813297E0,9.044869542E-1,5.551348686E0,9.776737278E0
2.670287621E0,7.987242222E0,9.044869542E-1,5.558526993E0,9.772991215E0
2.672666058E0,8.008777618E0,8.853443861E-1,5.580062389E0,9.801094321E0
2.675044496E0,7.999206066E0,8.973084688E-1,5.589633465E0,9.799819511E0
2.677422933E0,8.001599312E0,8.925228715E-1,5.575276852E0,9.793155804E0
2.679801319E0,7.994420528E0,8.997012973E-1,5.556134224E0,9.777057304E0
2.682179756E0,7.992027760E0,9.068797827E-1,5.551348686E0,9.773045118E0
2.684558194E0,8.013563156E0,9.044869542E-1,5.539384365E0,9.783663437E0
2.686936579E0,8.003992081E0,9.068797827E-1,5.532206059E0,9.771981582E0
2.689315017E0,8.013563156E0,8.757730722E-1,5.544169903E0,9.783761692E0
2.691693454E0,8.035098076E0,8.709874153E-1,5.536991596E0,9.796922787E0
2.694071892E0,8.018348694E0,8.518448472E-1,5.534598827E0,9.780150285E0
2.696450329E0,8.027919769E0,8.350951076E-1,5.520241737E0,9.778443051E0
2.698828715E0,8.035098076E0,8.231309652E-1,5.501099110E0,9.772534834E0
2.701207152E0,8.030312538E0,8.183453679E-1,5.477170944E0,9.754742957E0
2.703585590E0,8.039883614E0,8.159525394E-1,5.472385406E0,9.759739192E0
2.705964027E0,8.051848412E0,8.159525394E-1,5.469992638E0,9.768257820E0
2.708342465E0,8.066205025E0,7.968099117E-1,5.460421085E0,9.773165708E0
2.710720850E0,8.049455643E0,8.087740541E-1,5.446064472E0,9.752305873E0
2.713099288E0,8.056633949E0,7.944171429E-1,5.438885689E0,9.753047048E0
2.715477725E0,8.061419487E0,7.920243144E-1,5.429314613E0,9.751473931E0
2.717856163E0,8.061419487E0,7.896314859E-1,5.436492920E0,9.755278433E0
2.720234600E0,8.054241180E0,7.752745152E-1,5.438885689E0,9.749529686E0
2.722612985E0,8.056633949E0,7.968099117E-1,5.422136307E0,9.743911882E0
2.724991423E0,8.068597794E0,8.159525394E-1,5.426921844E0,9.758049478E0
2.727369860E0,8.078168869E0,8.111668825E-1,5.443671703E0,9.774884429E0
2.729748298E0,8.068597794E0,8.015955687E-1,5.458028316E0,9.774195564E0
2.732126683E0,8.073383331E0,8.039883971E-1,5.465207100E0,9.782351681E0
2.734505121E0,8.092526436E0,7.992027402E-1,5.458028316E0,9.793762415E0
2.736883558E0,8.073383331E0,7.968099117E-1,5.462814331E0,9.780427642E0
2.739261996E0,8.097311974E0,8.039883971E-1,5.477170944E0,9.808784843E0
2.741640433E0,8.102097511E0,8.135597110E-1,5.496313572E0,9.824221413E0
2.744018819E0,8.106883049E0,7.968099117E-1,5.498706341E0,9.828134626E0
2.746397256E0,8.102097511E0,8.015955687E-1,5.508277893E0,9.829937176E0
2.748775694E0,8.082955360E0,7.776673436E-1,5.527420521E0,9.822999108E0
2.751154131E0,8.070990562E0,8.039883971E-1,5.541777134E0,9.823369066E0
2.753532569E0,8.063812256E0,8.135597110E-1,5.548955917E0,9.822314354E0
2.755910954E0,8.044670105E0,8.303094506E-1,5.546562672E0,9.806655309E0
2.758289392E0,8.056633949E0,8.446664214E-1,5.527420521E0,9.806895001E0
2.760667829E0,8.051848412E0,8.350951076E-1,5.525027275E0,9.800794512E0
2.763046267E0,8.042277336E0,8.183453679E-1,5.560919762E0,9.811816472E0
2.765424652E0,8.032705307E0,8.303094506E-1,5.560919762E0,9.804978171E0
2.767803090E0,8.020741463E0,8.303094506E-1,5.548955917E0,9.788392062E0
2.770181527E0,8.018348694E0,8.231309652E-1,5.539384365E0,9.780400785E0
2.772559965E0,8.020741463E0,8.398807645E-1,5.520241737E0,9.772960767E0
2.774938402E0,8.020741463E0,8.350951076E-1,5.513063431E0,9.768497625E0
2.777316788E0,8.027919769E0,8.614161611E-1,5.513063431E0,9.776676430E0
2.779695225E0,8.027919769E0,8.446664214E-1,5.501099110E0,9.768472173E0
2.782073663E0,8.003992081E0,8.614161611E-1,5.489135265E0,9.743538012E0
2.784452100E0,8.015955925E0,8.662018180E-1,5.455635548E0,9.734978901E0
2.786830485E0,8.023134232E0,8.781659007E-1,5.446064472E0,9.736604977E0
2.789208923E0,8.025527000E0,8.853443861E-1,5.455635548E0,9.744581958E0
2.791587360E0,8.025527000E0,8.709874153E-1,5.443671703E0,9.736594082E0
2.793965798E0,8.032705307E0,8.853443861E-1,5.426921844E0,9.734457866E0
2.796344235E0,8.037490845E0,8.757730722E-1,5.402993679E0,9.724226357E0
2.798722621E0,8.063812256E0,8.781659007E-1,5.424529076E0,9.758163718E0
2.801101058E0,8.049455643E0,8.638089895E-1,5.453242779E0,9.761032677E0
2.803479496E0,8.047062874E0,8.662018180E-1,5.453242779E0,9.759271658E0
2.805857933E0,8.080561638E0,8.638089895E-1,5.446064472E0,9.782702111E0
2.808236319E0,8.099704742E0,8.638089895E-1,5.446064472E0,9.798520354E0
2.810614756E0,8.109275818E0,8.733802438E-1,5.467599869E0,9.819256370E0
2.812993194E0,8.116454124E0,8.805587292E-1,5.477170944E0,9.831155211E0
2.815371631E0,8.121239662E0,8.733802438E-1,5.477170944E0,9.834466343E0
2.817750069E0,8.154739380E0,8.757730722E-1,5.493920803E0,9.871672534E0
2.820128454E0,8.142775536E0,8.757730722E-1,5.503491879E0,9.867126976E0
2.822506892E0,8.142775536E0,8.685946465E-1,5.486742496E0,9.857159495E0
2.824885329E0,8.176275253E0,8.781659007E-1,5.496313572E0,9.891011841E0
2.827263767E0,8.193024635E0,8.709874153E-1,5.510670662E0,9.912202727E0
2.829642204E0,8.171489716E0,8.757730722E-1,5.532206059E0,9.906842409E0
2.832020590E0,8.166703224E0,8.781659007E-1,5.513063431E0,9.892425653E0
2.834399027E0,8.159524918E0,8.733802438E-1,5.527420521E0,9.894090031E0
2.836777465E0,8.147561073E0,8.566305041E-1,5.513063431E0,9.874737245E0
2.839155902E0,8.128418922E0,8.685946465E-1,5.505885124E0,9.855984062E0
2.841534288E0,8.099704742E0,8.901300430E-1,5.517848969E0,9.840945363E0
2.843912725E0,8.059026718E0,9.116654396E-1,5.527420521E0,9.814857265E0
2.846291163E0,8.011170387E0,9.212366939E-1,5.520241737E0,9.772440681E0
2.848669600E0,7.972885132E0,9.188438654E-1,5.520241737E0,9.740854183E0
2.851048038E0,7.929814339E0,9.212366939E-1,5.501099110E0,9.694984472E0
2.853426423E0,7.872386456E0,9.403793216E-1,5.467599869E0,9.630858222E0
2.855804860E0,7.836493969E0,9.427721500E-1,5.462814331E0,9.599051905E0
2.858183298E0,7.793423176E0,9.308080077E-1,5.429314613E0,9.543652630E0
2.860561735E0,7.743174076E0,9.571290612E-1,5.402993679E0,9.490267726E0
2.862940173E0,7.712067604E0,9.810572863E-1,5.367101192E0,9.446916711E0
2.865318558E0,7.688138962E0,9.714859724E-1,5.326423168E0,9.403299924E0
2.867696996E0,7.676175117E0,9.523434043E-1,5.300102234E0,9.376657511E0
2.870075433E0,7.659425259E0,9.260223508E-1,5.259424210E0,9.337336649E0
2.872453871E0,7.654639721E0,9.044869542E-1,5.206781864E0,9.301730123E0
2.874832256E0,7.640282631E0,8.853443861E-1,5.170889854E0,9.268001686E0
2.877210694E0,7.647460938E0,8.590233326E-1,5.137390137E0,9.252802672E0
2.879589131E0,7.649854183E0,8.087740541E-1,5.108676434E0,9.234335894E0
2.881967569E0,7.649854183E0,7.680960894E-1,5.079962254E0,9.215001743E0
2.884346006E0,7.680960655E0,7.441678643E-1,5.044070244E0,9.219196658E0
2.886724392E0,7.702496052E0,6.939185858E-1,5.012963295E0,9.216277417E0
2.889102829E0,7.726424217E0,6.245267391E-1,4.974678040E0,9.210596421E0
2.891481267E0,7.779066563E0,5.599204898E-1,4.943571568E0,9.233974626E0
2.893859704E0,7.855636597E0,5.455635786E-1,4.905286312E0,9.277418809E0
2.896238090E0,7.927421570E0,5.240281820E-1,4.862215519E0,9.314491829E0
2.898616527E0,8.011170387E0,4.857429862E-1,4.819144726E0,9.361567877E0
2.900994965E0,8.090133667E0,4.450650215E-1,4.776073933E0,9.405276595E0
2.903373402E0,8.161917686E0,4.307080805E-1,4.730610371E0,9.443573701E0
2.905751840E0,8.236095428E0,4.139583111E-1,4.687539577E0,9.485655311E0
2.908130225E0,8.324629784E0,3.972085714E-1,4.670789719E0,9.553717197E0
2.910508663E0,8.396414757E0,3.565305769E-1,4.697110653E0,9.627551262E0
2.912887100E0,8.468199730E0,3.373879790E-1,4.697110653E0,9.689534860E0
2.915265538E0,8.516056061E0,3.326023519E-1,4.723432064E0,9.743954311E0
2.917643975E0,8.566305161E0,3.373879790E-1,4.733003139E0,9.792687755E0
2.920022360E0,8.580661774E0,3.469592929E-1,4.761716843E0,9.819474758E0
2.922400798E0,8.602197647E0,3.541377485E-1,4.790431023E0,9.852484321E0
2.924779235E0,8.614161491E0,3.900300860E-1,4.826323509E0,9.881766051E0
2.927157673E0,8.626125336E0,3.924229145E-1,4.857429981E0,9.907505240E0
2.929536110E0,8.650053978E0,3.924229145E-1,4.883750916E0,9.941250051E0
2.931914496E0,8.673981667E0,4.067798555E-1,4.910071850E0,9.975581856E0
2.934292933E0,8.681160927E0,4.307080805E-1,4.957928658E0,1.000645397E1
2.936671371E0,8.676374435E0,4.570291340E-1,5.022534847E0,1.003564673E1
2.939049808E0,8.733802795E0,4.857429862E-1,5.075176716E0,1.011299541E1
2.941428194E0,8.733802795E0,5.288137794E-1,5.144568920E0,1.015014998E1
2.943806631E0,8.726624489E0,5.742774606E-1,5.192425251E0,1.017079395E1
2.946185069E0,8.750552177E0,6.125625968E-1,5.249852657E0,1.022293252E1
2.948563506E0,8.788837433E0,6.436693072E-1,5.280959606E0,1.027358301E1
2.950941944E0,8.760123253E0,6.987041831E-1,5.324030399E0,1.027488426E1
2.953320329E0,8.738588333E0,7.537391186E-1,5.335994720E0,1.026663959E1
2.955698767E0,8.721838951E0,7.872386575E-1,5.347958565E0,1.026113445E1
2.958077204E0,8.683553696E0,8.135597110E-1,5.362315655E0,1.023818409E1
2.960455642E0,8.621339798E0,8.398807645E-1,5.355136871E0,1.018382986E1
2.962834079E0,8.563912392E0,8.638089895E-1,5.357530117E0,1.013853492E1
2.965212465E0,8.506484032E0,8.853443861E-1,5.355136871E0,1.009066877E1
2.967590902E0,8.439485550E0,9.068797827E-1,5.335994720E0,1.002597561E1
2.969969340E0,8.334200859E0,9.332008362E-1,5.324030399E0,9.933532476E0
2.972347777E0,8.240880966E0,9.403793216E-1,5.297709465E0,9.841857444E0
2.974726163E0,8.173882484E0,9.690931439E-1,5.276174068E0,9.776988759E0
2.977104600E0,8.092526436E0,9.978070259E-1,5.268995285E0,9.708084996E0
2.979483038E0,7.999206066E0,1.012163997E0,5.264209747E0,9.629313470E0
2.981861475E0,7.941778183E0,1.031306505E0,5.254638672E0,9.578447755E0
2.984239913E0,7.891529083E0,1.031306505E0,5.237888813E0,9.527607443E0
2.986618298E0,7.884350777E0,1.021735311E0,5.240281582E0,9.521947347E0
2.988996735E0,7.860422611E0,1.014556766E0,5.242674351E0,9.502694534E0
2.991375173E0,7.817351341E0,1.007378340E0,5.261816978E0,9.476946292E0
2.993753610E0,7.819744587E0,1.012163997E0,5.295316696E0,9.498066133E0
2.996131996E0,7.819744587E0,1.033699393E0,5.312066078E0,9.509731114E0
2.998510433E0,7.834101200E0,1.083948612E0,5.345565796E0,9.545845164E0
3.000888871E0,7.853243828E0,1.119840980E0,5.381458282E0,9.585800733E0
3.003267308E0,7.910671711E0,1.105484009E0,5.417350292E0,9.651347367E0
3.005645746E0,7.996813297E0,1.074377418E0,5.453242779E0,9.738642952E0
3.008024131E0,8.063812256E0,1.091127157E0,5.474778175E0,9.807590053E0
3.010402569E0,8.128418922E0,1.088734269E0,5.517848969E0,9.884492588E0
3.012781006E0,8.228917122E0,1.069591761E0,5.546562672E0,9.981155294E0
3.015159444E0,8.322237015E0,1.067198873E0,5.556134224E0,1.006325841E1
3.017537829E0,8.408378601E0,1.071984529E0,5.556134224E0,1.013511761E1
3.019916267E0,8.492127419E0,1.098305583E0,5.541777134E0,1.019969593E1
3.022294704E0,8.561519623E0,1.079162955E0,5.515456200E0,1.024131183E1
3.024673142E0,8.599804878E0,1.083948612E0,5.481956482E0,1.025589759E1
3.027051579E0,8.659625053E0,1.074377418E0,5.479563713E0,1.030383479E1
3.029429965E0,8.736195564E0,1.040877819E0,5.467599869E0,1.035853213E1
3.031808402E0,8.764909744E0,1.028913736E0,5.436492920E0,1.036521884E1
3.034186840E0,8.784051895E0,1.033699393E0,5.422136307E0,1.037437537E1
3.036565277E0,8.798408508E0,1.026520967E0,5.424529076E0,1.038707145E1
3.038943715E0,8.810373306E0,1.007378340E0,5.424529076E0,1.039533571E1
3.041322100E0,8.786444664E0,1.016949654E0,5.388636589E0,1.035727767E1
3.043700538E0,8.774480820E0,1.074377418E0,5.350351334E0,1.033305666E1
3.046078975E0,8.774480820E0,1.117448211E0,5.321637630E0,1.032279183E1
3.048457413E0,8.745766640E0,1.129412293E0,5.288137913E0,1.028243205E1
3.050835798E0,8.690732002E0,1.127019525E0,5.254638672E0,1.021813209E1
3.053214235E0,8.669196129E0,1.138983607E0,5.228317261E0,1.018761732E1
3.055592673E0,8.640482903E0,1.162911773E0,5.216353416E0,1.015975647E1
3.057971110E0,8.597412109E0,1.179661512E0,5.204389095E0,1.011893088E1
3.060349548E0,8.554341316E0,1.172483087E0,5.206781864E0,1.008276001E1
3.062727933E0,8.518448830E0,1.158126116E0,5.213960648E0,1.005438274E1
3.065106371E0,8.465806961E0,1.155733347E0,5.209175110E0,1.000705313E1
3.067484808E0,8.463413239E0,1.158126116E0,5.204389095E0,1.000281388E1
3.069863246E0,8.458627701E0,1.170090318E0,5.185246468E0,9.990208950E0
3.072241631E0,8.446663857E0,1.189232826E0,5.166104317E0,9.972413892E0
3.074620069E0,8.425128937E0,1.184447169E0,5.123033047E0,9.931323190E0
3.076998506E0,8.415556908E0,1.150947690E0,5.101497650E0,9.908156081E0
3.079376944E0,8.422736168E0,1.112662554E0,5.067998409E0,9.892679636E0
3.081755381E0,8.415556908E0,1.083948612E0,5.017749310E0,9.857705148E0
3.084133819E0,8.453842163E0,1.062413216E0,4.974678040E0,9.866285560E0
3.086512204E0,8.468199730E0,1.024128079E0,4.931607246E0,9.852918097E0
3.088890642E0,8.501698494E0,1.007378340E0,4.869394302E0,9.849095861E0
3.091269079E0,8.559126854E0,9.690931439E-1,4.804787636E0,9.863253938E0
3.093647517E0,8.599804878E0,9.355936646E-1,4.749752998E0,9.868745259E0
3.096025902E0,8.642875671E0,8.685946465E-1,4.701896667E0,9.877327007E0
3.098404340E0,8.669196129E0,8.063812256E-1,4.666004181E0,9.878097348E0
3.100782777E0,8.700303078E0,7.704889178E-1,4.644468784E0,9.892422206E0
3.103161215E0,8.740981102E0,7.369893789E-1,4.594219685E0,9.902260271E0
3.105539600E0,8.776873589E0,6.987041831E-1,4.567898273E0,9.919041897E0
3.107918038E0,8.800801277E0,6.795616150E-1,4.532006264E0,9.922448684E0
3.110296475E0,8.810373306E0,6.412764788E-1,4.496113777E0,9.912060957E0
3.112674913E0,8.829515457E0,5.886343718E-1,4.476971149E0,9.917162109E0
3.115053350E0,8.853444099E0,5.240281820E-1,4.500899315E0,9.945660994E0
3.117431735E0,8.855836868E0,4.809573591E-1,4.524827480E0,9.956466760E0
3.119810173E0,8.879764557E0,4.043870270E-1,4.546362877E0,9.984145575E0
3.122188610E0,8.891729355E0,3.445664644E-1,4.596612453E0,1.001550912E1
3.124567048E0,8.884550095E0,3.206382394E-1,4.632504463E0,1.002487590E1
3.126945485E0,8.896514893E0,3.302095234E-1,4.661218643E0,1.004907831E1
3.129323871E0,8.903693199E0,2.751746178E-1,4.716253281E0,1.007941063E1
3.131702308E0,8.941978455E0,2.799602449E-1,4.752145767E0,1.013016514E1
3.134080746E0,8.956335068E0,3.014956415E-1,4.821537495E0,1.017615159E1
3.136459183E0,9.004191399E0,3.182454109E-1,4.864608288E0,1.023919707E1
3.138837621E0,9.035298347E0,3.373879790E-1,4.919643402E0,1.029336379E1
3.141216006E0,9.073583603E0,4.163511395E-1,4.962714195E0,1.035044926E1
3.143594444E0,9.114261627E0,5.096712112E-1,5.015356064E0,1.041553293E1
3.145972881E0,9.138189316E0,5.790630579E-1,5.067998409E0,1.046548737E1
3.148351319E0,9.152546883E0,6.221339107E-1,5.123033047E0,1.050721812E1
3.150729704E0,9.150154114E0,6.939185858E-1,5.168497086E0,1.053186619E1
3.153108142E0,9.166903496E0,7.776673436E-1,5.225924492E0,1.058050911E1
3.155486579E0,9.145368576E0,8.063812256E-1,5.278566837E0,1.059015037E1
3.157865017E0,9.109476089E0,8.398807645E-1,5.312066078E0,1.057856325E1
3.160243454E0,9.083154678E0,8.494520187E-1,5.331208706E0,1.056631695E1
3.162621840E0,9.054440498E0,8.518448472E-1,5.345565796E0,1.054910451E1
3.165000277E0,9.028120041E0,8.901300430E-1,5.340780258E0,1.052726065E1
3.167378715E0,9.018548965E0,9.188438654E-1,5.340780258E0,1.052152238E1
3.169757152E0,8.987442017E0,9.355936646E-1,5.347958565E0,1.050000525E1
3.172135538E0,8.956335068E0,9.595218897E-1,5.347958565E0,1.047555635E1
3.174513975E0,8.951549530E0,9.978070259E-1,5.345565796E0,1.047382125E1
3.176892413E0,8.922835350E0,1.045663476E0,5.376672268E0,1.046990962E1
3.179270850E0,8.867800713E0,1.103091240E0,5.333601475E0,1.040682490E1
3.181649288E0,8.843872070E0,1.184447169E0,5.316852093E0,1.038681397E1
3.184027673E0,8.805587769E0,1.246660590E0,5.316852093E0,1.036153728E1
3.186406110E0,8.764909744E0,1.301695466E0,5.302495003E0,1.032639856E1
3.188784548E0,8.707481384E0,1.349551916E0,5.309673309E0,1.028757275E1
3.191162985E0,8.666803360E0,1.404586911E0,5.328815937E0,1.027047341E1
3.193541423E0,8.621339798E0,1.485942841E0,5.340780258E0,1.024985170E1
3.195919808E0,8.599804878E0,1.536192179E0,5.388636589E0,1.026420648E1
3.198298246E0,8.537590981E0,1.562513232E0,5.438885689E0,1.024272351E1
3.200676683E0,8.463413239E0,1.576870084E0,5.462814331E0,1.019599055E1
3.203055121E0,8.422736168E0,1.581655741E0,5.481956482E0,1.017329673E1
3.205433506E0,8.374878883E0,1.548156261E0,5.486742496E0,1.013112666E1
3.207811944E0,8.291130066E0,1.512263894E0,5.448457241E0,1.003570955E1
3.210190381E0,8.193024635E0,1.481157184E0,5.400600910E0,9.924009748E0
3.212568819E0,8.111668587E0,1.442872047E0,5.340780258E0,9.818603810E0
3.214947256E0,8.035098076E0,1.406979680E0,5.218746185E0,9.683888922E0
3.217325642E0,7.917850018E0,1.390229940E0,5.060820103E0,9.499315149E0
3.219704079E0,7.824530125E0,1.366301775E0,4.888536453E0,9.326727232E0
3.222082517E0,7.764709473E0,1.335195065E0,4.697110653E0,9.172584562E0
3.224460954E0,7.680960655E0,1.306481123E0,4.476971149E0,8.985951268E0
3.226839392E0,7.628318787E0,1.263410330E0,4.242474556E0,8.819639649E0
3.229217777E0,7.585247993E0,1.182054400E0,3.986442566E0,8.650142430E0
3.231596215E0,7.532605648E0,1.124626637E0,3.768695593E0,8.497529017E0
3.233974652E0,7.537391186E0,1.040877819E0,3.608376503E0,8.421168180E0
3.236353090E0,7.570890903E0,9.547362328E-1,3.462414265E0,8.379631429E0
3.238731527E0,7.606783390E0,8.566305041E-1,3.314059258E0,8.341460191E0
3.241109913E0,7.664210796E0,7.800601721E-1,3.170490026E0,8.330703933E0
3.243488350E0,7.716853142E0,6.987041831E-1,3.046063185E0,8.325653781E0
3.245866788E0,7.800601959E0,6.173482537E-1,2.967100143E0,8.368643442E0
3.248245225E0,7.913064480E0,5.623133183E-1,2.897708178E0,8.445679275E0
3.250623610E0,8.047062874E0,5.168496966E-1,2.907279491E0,8.571734279E0
3.253002048E0,8.147561073E0,4.809573591E-1,2.912065268E0,8.665690714E0
3.255380485E0,8.264809608E0,4.426721931E-1,2.938386202E0,8.782775757E0
3.257758923E0,8.413164139E0,3.948157430E-1,2.991028309E0,8.937754788E0
3.260137360E0,8.580661774E0,3.852444589E-1,3.081955671E0,9.125492892E0
3.262515746E0,8.738588333E0,3.732803464E-1,3.163311481E0,9.301010902E0
3.264894183E0,8.884550095E0,3.684946895E-1,3.263810158E0,9.472247646E0
3.267272621E0,9.056833267E0,3.684946895E-1,3.404986620E0,9.682765671E0
3.269651058E0,9.190832138E0,3.661018610E-1,3.527020693E0,9.851157340E0
3.272029444E0,9.348757744E0,3.780659735E-1,3.680161238E0,1.005414303E1
3.274407881E0,9.463613510E0,3.900300860E-1,3.785445452E0,1.020008340E1
3.276786319E0,9.571290970E0,4.426721931E-1,3.830909014E0,1.031898412E1
3.279164756E0,9.645467758E0,4.785645306E-1,3.876372576E0,1.040626430E1
3.281543194E0,9.710074425E0,5.024927258E-1,3.955335855E0,1.049679599E1
3.283921579E0,9.755537987E0,5.623133183E-1,4.007977962E0,1.056175199E1
3.286300017E0,9.769894600E0,6.101697683E-1,4.041477680E0,1.059040554E1
3.288678454E0,9.769894600E0,6.556333899E-1,4.019941807E0,1.058492455E1
3.291056892E0,9.736394882E0,6.771687865E-1,3.974478483E0,1.053814130E1
3.293435329E0,9.662218094E0,6.580262184E-1,3.952943087E0,1.046026845E1
3.295813715E0,9.578469276E0,6.795616150E-1,3.940979004E0,1.037979736E1
3.298192152E0,9.473184586E0,6.484549642E-1,3.919443607E0,1.027247576E1
3.300570590E0,9.384650230E0,6.221339107E-1,3.893122435E0,1.017915089E1
3.302949027E0,9.281759262E0,5.934200287E-1,3.862015724E0,1.007066869E1
3.305327413E0,9.166903496E0,5.455635786E-1,3.833301783E0,9.951078428E0
3.307705850E0,9.049654961E0,5.072783828E-1,3.830909014E0,9.840195635E0
3.310084288E0,8.932407379E0,4.833501875E-1,3.842873096E0,9.735974662E0
3.312462725E0,8.793622971E0,4.378865361E-1,3.850051641E0,9.609497761E0
3.314841163E0,8.688339233E0,4.019941986E-1,3.878765583E0,9.523321921E0
3.317219548E0,8.575876236E0,3.996013701E-1,3.931407690E0,9.442526192E0
3.319597985E0,8.504091263E0,4.187439680E-1,3.972085476E0,9.395338086E0
3.321976423E0,8.417949677E0,4.139583111E-1,4.024727821E0,9.339789734E0
3.324354860E0,8.367700577E0,4.354937077E-1,4.091726780E0,9.324714245E0
3.326733298E0,8.322237015E0,4.618147612E-1,4.144368649E0,9.308527988E0
3.329111683E0,8.288737297E0,4.761717021E-1,4.187439442E0,9.298631864E0
3.331490121E0,8.291130066E0,4.713860750E-1,4.230510235E0,9.319992460E0
3.333868558E0,8.264809608E0,4.953143001E-1,4.280759811E0,9.320800324E0
3.336246996E0,8.283951759E0,5.288137794E-1,4.307080746E0,9.351708150E0
3.338625381E0,8.300702095E0,5.910272002E-1,4.340580463E0,9.385712929E0
3.341003819E0,8.358129501E0,6.388836503E-1,4.338187218E0,9.438557592E0
3.343382256E0,8.425128937E0,6.747759581E-1,4.333401680E0,9.498236169E0
3.345760694E0,8.446663857E0,6.843472719E-1,4.340580463E0,9.521297194E0
3.348139131E0,8.506484032E0,6.939185858E-1,4.352544308E0,9.580523761E0
3.350517517E0,8.551948547E0,7.082754970E-1,4.354937077E0,9.623042922E0
3.352895954E0,8.606983185E0,7.345965505E-1,4.357329845E0,9.675025324E0
3.355274392E0,8.671588898E0,7.489534616E-1,4.362115860E0,9.735781431E0
3.357652829E0,8.731410027E0,7.585247755E-1,4.383651257E0,9.799453006E0
3.360031267E0,8.800801277E0,7.609176040E-1,4.417150497E0,9.876452665E0
3.362409652E0,8.879764557E0,7.609176040E-1,4.453042984E0,9.962871373E0
3.364788090E0,8.946763992E0,7.561319470E-1,4.493721008E0,1.004041085E1
3.367166527E0,9.042476654E0,7.489534616E-1,4.543970108E0,1.014765883E1
3.369544965E0,9.131011009E0,7.322037220E-1,4.613361835E0,1.025644148E1
3.371923402E0,9.207581520E0,7.154539824E-1,4.644468784E0,1.033743305E1
3.374301788E0,9.260223389E0,6.843472719E-1,4.675575256E0,1.039620471E1
3.376680225E0,9.274580956E0,6.101697683E-1,4.677968502E0,1.040545762E1
3.379058663E0,9.276973724E0,5.647061467E-1,4.682754040E0,1.040717637E1
3.381437100E0,9.269794464E0,5.240281820E-1,4.694717884E0,1.040404109E1
3.383815485E0,9.265008926E0,4.546363056E-1,4.689932346E0,1.039435183E1
3.386193923E0,9.253045082E0,4.115654826E-1,4.666004181E0,1.037110527E1
3.388572360E0,9.260223389E0,4.019941986E-1,4.649254322E0,1.036961438E1
3.390950798E0,9.221938133E0,3.732803464E-1,4.630111694E0,1.032576464E1
3.393329235E0,9.195617676E0,3.493520916E-1,4.589433670E0,1.028320635E1
3.395707621E0,9.154939651E0,3.110669553E-1,4.546362877E0,1.022639223E1
3.398086058E0,9.085547447E0,2.847459018E-1,4.503292084E0,1.014435273E1
3.400464496E0,9.040083885E0,2.656033039E-1,4.481756687E0,1.009355263E1
3.402842933E0,8.992227554E0,2.560320199E-1,4.457828522E0,1.003981792E1
3.405221319E0,8.944371223E0,2.440679073E-1,4.393222332E0,9.968036325E0
3.407599756E0,8.886942863E0,2.177468538E-1,4.371686935E0,9.906402668E0
3.409978194E0,8.865407944E0,2.297109663E-1,4.335794449E0,9.871541857E0
3.412356631E0,8.853444099E0,2.344966233E-1,4.304687977E0,9.847273717E0
3.414735069E0,8.831908226E0,2.751746178E-1,4.285545349E0,9.820601963E0
3.417113454E0,8.824729919E0,3.038884699E-1,4.252045631E0,9.800413175E0
3.419491892E0,8.831908226E0,3.206382394E-1,4.225724697E0,9.796027818E0
3.421870329E0,8.827122688E0,3.517449200E-1,4.216153622E0,9.788655209E0
3.424248767E0,8.822337151E0,4.043870270E-1,4.211368084E0,9.784313098E0
3.426627204E0,8.829515457E0,4.594219327E-1,4.220939159E0,9.797333265E0
3.429005590E0,8.831908226E0,4.977070987E-1,4.230510235E0,9.805484798E0
3.431384027E0,8.848658562E0,5.383850932E-1,4.264009953E0,9.837194606E0
3.433762465E0,8.858229637E0,6.029912829E-1,4.273581028E0,9.853696037E0
3.436140902E0,8.874979019E0,6.843472719E-1,4.285545349E0,9.879245048E0
3.438519340E0,8.886942863E0,7.178468108E-1,4.328616142E0,9.911103632E0
3.440897725E0,8.898907661E0,7.680960894E-1,4.350151539E0,9.935006169E0
3.443276163E0,8.927620888E0,8.303094506E-1,4.374079704E0,9.976191746E0
3.445654600E0,8.939585686E0,9.140582681E-1,4.431507587E0,1.001947874E1
3.448033038E0,8.949156761E0,9.810572863E-1,4.455435753E0,1.004493842E1
3.450411423E0,8.927620888E0,1.009771109E0,4.484149456E0,1.004139675E1
3.452789860E0,8.915657043E0,1.012163997E0,4.515256405E0,1.004494683E1
3.455168298E0,8.896514893E0,1.040877819E0,4.541577339E0,1.004277494E1
3.457546735E0,8.853444099E0,1.057627559E0,4.570291042E0,1.001946150E1
3.459925173E0,8.822337151E0,1.064806104E0,4.596612453E0,1.000481339E1
3.462303558E0,8.774480820E0,1.086341500E0,4.610969067E0,9.971594017E0
3.464681996E0,8.700303078E0,1.076770186E0,4.632504463E0,9.915382256E0
3.467060433E0,8.633303642E0,1.086341500E0,4.649254322E0,9.865578310E0
3.469438871E0,8.575876236E0,1.119840980E0,4.627718925E0,9.808948949E0
3.471817256E0,8.499305725E0,1.146162033E0,4.613361835E0,9.738325967E0
3.474195694E0,8.425128937E0,1.170090318E0,4.646861553E0,9.692534821E0
3.476574131E0,8.348558426E0,1.189232826E0,4.642076015E0,9.626088107E0
3.478952569E0,8.291130066E0,1.201196909E0,4.649254322E0,9.581298322E0
3.481331006E0,8.264809608E0,1.227517962E0,4.632504463E0,9.553741456E0
3.483709444E0,8.238488197E0,1.251446247E0,4.642076015E0,9.538745998E0
3.486087829E0,8.200202942E0,1.289731383E0,4.637290478E0,9.508480336E0
3.488466267E0,8.169096947E0,1.318445325E0,4.639683247E0,9.486785737E0
3.490844704E0,8.188239098E0,1.361516118E0,4.632504463E0,9.505844689E0
3.493223142E0,8.219346046E0,1.390229940E0,4.627718925E0,9.534472779E0
3.495601527E0,8.250452042E0,1.430907965E0,4.632504463E0,9.569616194E0
3.497979965E0,8.291130066E0,1.473978758E0,4.630111694E0,9.610066881E0
3.500358402E0,8.355736732E0,1.529013634E0,4.637290478E0,9.677844905E0
3.502736840E0,8.405985832E0,1.576870084E0,4.615755081E0,9.718657934E0
3.505115225E0,8.470592499E0,1.627119422E0,4.589433670E0,9.770432759E0
3.507493663E0,8.597412109E0,1.634297848E0,4.577469826E0,9.876216606E0
3.509872100E0,8.685946465E0,1.643869162E0,4.572684288E0,9.952759085E0
3.512250538E0,8.793622971E0,1.691725612E0,4.570291042E0,1.005372074E1
3.514628975E0,8.884550095E0,1.727617979E0,4.567898273E0,1.013832279E1
3.517007360E0,9.013762474E0,1.792224169E0,4.577469826E0,1.026709362E1
3.519385798E0,9.114261627E0,1.775474429E0,4.577469826E0,1.035255063E1
3.521764235E0,9.214759827E0,1.770688772E0,4.589433670E0,1.044557508E1
3.524142673E0,9.298508644E0,1.739582062E0,4.620540619E0,1.052795347E1
3.526521110E0,9.365508080E0,1.694118381E0,4.649254322E0,1.059237199E1
3.528899548E0,9.425328255E0,1.634297848E0,4.685146809E0,1.065168263E1
3.531277933E0,9.434899330E0,1.584048629E0,4.718646049E0,1.066734062E1
3.533656371E0,9.461220741E0,1.529013634E0,4.737788677E0,1.069108143E1
3.536034808E0,9.477970123E0,1.457229018E0,4.771288395E0,1.071077154E1
3.538413246E0,9.494720459E0,1.402194023E0,4.804787636E0,1.073321242E1
3.540791631E0,9.506684303E0,1.308874011E0,4.809573650E0,1.073416025E1
3.543170069E0,9.492327690E0,1.229910851E0,4.800002098E0,1.070780023E1
3.545548506E0,9.477970123E0,1.189232826E0,4.783252239E0,1.068296281E1
3.547926944E0,9.458827972E0,1.155733347E0,4.759324074E0,1.065158729E1
3.550305381E0,9.456435204E0,1.122233868E0,4.733003139E0,1.063413816E1
3.552683767E0,9.415757179E0,1.083948612E0,4.701896667E0,1.058013517E1
3.555062204E0,9.377471924E0,1.060020447E0,4.656432629E0,1.052344943E1
3.557440642E0,9.358329773E0,1.069591761E0,4.599005222E0,1.048204234E1
3.559819079E0,9.329615593E0,1.067198873E0,4.517649174E0,1.042064272E1
3.562197465E0,9.276973724E0,1.088734269E0,4.436293125E0,1.034061316E1
3.564575902E0,9.253045082E0,1.119840980E0,4.378865242E0,1.029792930E1
3.566954340E0,9.231510162E0,1.141376376E0,4.292723656E0,1.024455935E1
3.569332777E0,9.186046600E0,1.158126116E0,4.206582069E0,1.016956444E1
3.571711215E0,9.147761345E0,1.184447169E0,4.132404804E0,1.010748347E1
3.574089600E0,9.085547447E0,1.191625714E0,4.086941242E0,1.003345568E1
3.576468038E0,9.040083885E0,1.203589797E0,4.039084435E0,9.974264290E0
3.578846475E0,9.023334503E0,1.210768223E0,3.976871252E0,9.934889541E0
3.581224913E0,9.023334503E0,1.253839016E0,3.921836376E0,9.918340506E0
3.583603350E0,9.020941734E0,1.318445325E0,3.842873096E0,9.893602048E0
3.585981735E0,9.011369705E0,1.383051515E0,3.761517286E0,9.862384486E0
3.588360173E0,9.006584167E0,1.426122308E0,3.672982693E0,9.830726579E0
3.590738610E0,8.982656479E0,1.483550072E0,3.567698479E0,9.778420663E0
3.593117048E0,8.982656479E0,1.536192179E0,3.486342669E0,9.757181408E0
3.595495485E0,8.968298912E0,1.586441398E0,3.433700562E0,9.733318100E0
3.597873871E0,8.968298912E0,1.607976794E0,3.385843992E0,9.720077895E0
3.600252308E0,8.958727837E0,1.634297848E0,3.318845034E0,9.692495358E0
3.602630746E0,8.973084450E0,1.660618901E0,3.247060299E0,9.685933113E0
3.605009183E0,8.982656479E0,1.672582984E0,3.168097258E0,9.670702740E0
3.607387569E0,8.958727837E0,1.686939955E0,3.108276606E0,9.631508413E0
3.609766006E0,8.999405861E0,1.737189293E0,3.103491068E0,9.676713765E0
3.612144444E0,9.049654961E0,1.804188251E0,3.098705292E0,9.734131941E0
3.614522881E0,9.097511292E0,1.842473388E0,3.120240688E0,9.792615679E0
3.616901319E0,9.162117958E0,1.899901152E0,3.151347399E0,9.873450273E0
3.619279704E0,9.226723671E0,1.957328916E0,3.192025423E0,9.957539479E0
3.621658142E0,9.310472488E0,2.007578135E0,3.239881754E0,1.006042254E1
3.624036579E0,9.394221306E0,2.009970903E0,3.309273720E0,1.016084000E1
3.626415017E0,9.432506561E0,2.007578135E0,3.318845034E0,1.019888633E1
3.628793454E0,9.451649666E0,2.000399828E0,3.376272678E0,1.023398740E1
3.631171840E0,9.497113228E0,1.986042738E0,3.436093330E0,1.029302010E1
3.633550277E0,9.552147865E0,1.952543259E0,3.471985579E0,1.034942693E1
3.635928715E0,9.576076508E0,1.899901152E0,3.500699520E0,1.037139156E1
3.638307152E0,9.583254814E0,1.859223247E0,3.512663603E0,1.037469467E1
3.640685538E0,9.614361763E0,1.753939033E0,3.522234917E0,1.038837779E1
3.643063975E0,9.643074989E0,1.631905079E0,3.555734396E0,1.040650069E1
3.645442413E0,9.681360245E0,1.483550072E0,3.601198196E0,1.043543413E1
3.647820850E0,9.714859962E0,1.344766378E0,3.649054527E0,1.046434421E1
3.650199288E0,9.693324089E0,1.162911773E0,3.682554007E0,1.043427524E1
3.652577673E0,9.650253296E0,9.595218897E-1,3.668197155E0,1.036840110E1
3.654956110E0,9.604789734E0,7.154539824E-1,3.629911900E0,1.029272173E1
3.657334548E0,9.576076508E0,4.737788737E-1,3.574877024E0,1.023256827E1
3.659712985E0,9.568898201E0,1.890329868E-1,3.548556089E0,1.020743830E1
3.662091423E0,9.549755096E0,-2.153540403E-2,3.570091486E0,1.019528516E1
3.664469808E0,9.571290970E0,-2.153540403E-1,3.567698479E0,1.021687137E1
3.666848246E0,9.588040352E0,-4.067798555E-1,3.558127165E0,1.023505039E1
3.669226683E0,9.576076508E0,-6.149554253E-1,3.541377544E0,1.022842932E1
3.671605121E0,9.600004196E0,-7.657032609E-1,3.488735437E0,1.024293205E1
3.673983506E0,9.631111145E0,-8.757730722E-1,3.448057413E0,1.026715054E1
3.676361944E0,9.669396400E0,-9.786644578E-1,3.419343472E0,1.030276277E1
3.678740381E0,9.695717812E0,-1.083948612E0,3.395415306E0,1.033008875E1
3.681118819E0,9.714859962E0,-1.110269666E0,3.373879910E0,1.034380338E1
3.683497256E0,9.726823807E0,-1.088734269E0,3.361915827E0,1.034886089E1
3.685875642E0,9.760323524E0,-1.052842021E0,3.354737282E0,1.037432667E1
3.688254079E0,9.786644936E0,-1.028913736E0,3.335594654E0,1.039053773E1
3.690632517E0,9.779465675E0,-1.031306505E0,3.299702406E0,1.037253961E1
3.693010954E0,9.741181374E0,-9.451649189E-1,3.249453068E0,1.031226922E1
3.695389392E0,9.700503349E0,-8.350951076E-1,3.211168051E0,1.025225582E1
3.697767777E0,9.664610863E0,-7.178468108E-1,3.196810961E0,1.020488155E1
3.700146215E0,9.561718941E0,-5.742774606E-1,3.189632654E0,1.009603983E1
3.702524652E0,9.399007797E0,-4.761717021E-1,3.156133175E0,9.926190794E0
3.704903090E0,9.152546883E0,-3.972085714E-1,3.103491068E0,9.672566665E0
3.707281475E0,8.877371788E0,-3.756731451E-1,3.050848961E0,9.394495173E0
3.709659913E0,8.563912392E0,-3.349951804E-1,3.014956474E0,9.085305706E0
3.712038350E0,8.283951759E0,-2.656033039E-1,2.967100143E0,8.803299673E0
3.714416788E0,8.013563156E0,-1.818545163E-1,2.895315409E0,8.522506488E0
3.716795225E0,7.750352383E0,-8.853443712E-2,2.801995277E0,8.241782449E0
3.719173663E0,7.501499176E0,-2.153540403E-2,2.665604353E0,7.961055221E0
3.721552048E0,7.221538544E0,2.392822690E-2,2.510071039E0,7.645367756E0
3.723930485E0,6.967899323E0,9.092725813E-2,2.318645239E0,7.344113594E0
3.726308923E0,6.750152588E0,1.244267747E-1,2.117648125E0,7.075625454E0
3.728687360E0,6.575476646E0,1.986042857E-1,1.957328916E0,6.863488419E0
3.731065746E0,6.400800705E0,2.201396823E-1,1.808973908E0,6.655155727E0
3.733444183E0,6.257231236E0,1.986042857E-1,1.686939955E0,6.483683583E0
3.735822621E0,6.128018856E0,1.363908947E-1,1.615155339E0,6.338765207E0
3.738201058E0,6.075376511E0,1.052841991E-1,1.581655741E0,6.278767346E0
3.740579444E0,6.080162525E0,7.417750359E-2,1.567298889E0,6.279355416E0
3.742957881E0,6.135197163E0,4.067798331E-2,1.607976794E0,6.342545884E0
3.745336319E0,6.240481377E0,-1.435693540E-2,1.663011789E0,6.458283220E0
3.747714756E0,6.412764549E0,4.785645287E-3,1.720439434E0,6.639539435E0
3.750093194E0,6.644868374E0,2.392822690E-2,1.804188251E0,6.885487892E0
3.752471579E0,6.879364967E0,3.589234129E-2,1.859223247E0,7.126265621E0
3.754850017E0,7.085147858E0,3.349951655E-2,1.938186288E0,7.345543443E0
3.757228454E0,7.317251682E0,1.674975827E-2,2.014756680E0,7.589578197E0
3.759606892E0,7.575676441E0,-1.196411345E-2,2.072184324E0,7.853977626E0
3.761985329E0,7.838887215E0,-2.871387079E-2,2.132004976E0,8.123695124E0
3.764363715E0,8.130811691E0,-1.196411345E-2,2.199003935E0,8.422936555E0
3.766742152E0,8.413164139E0,1.914258115E-2,2.285145521E0,8.718003631E0
3.769120590E0,8.654839516E0,1.914258115E-2,2.344966173E0,8.966910272E0
3.771499027E0,8.858229637E0,-2.153540403E-2,2.423929453E0,9.183906036E0
3.773877465E0,9.049654961E0,-1.124626622E-1,2.531606436E0,9.397762175E0
3.776255850E0,9.288937569E0,-8.614161611E-2,2.634497643E0,9.655690517E0
3.778634288E0,9.509077072E0,-2.392822690E-2,2.732603550E0,9.893949741E0
3.781012725E0,9.724431038E0,4.785645381E-2,2.806781054E0,1.012150528E1
3.783391163E0,9.946963310E0,1.196411327E-1,2.878565550E0,1.035579706E1
3.785769548E0,1.010967541E1,1.292124242E-1,2.945564747E0,1.053083968E1
3.788147985E0,1.026999474E1,1.292124242E-1,3.024527788E0,1.070687891E1
3.790526423E0,1.038245773E1,1.483550072E-1,3.129812002E0,1.084496016E1
3.792904860E0,1.046859932E1,1.531406492E-1,3.294916868E0,1.097595103E1
3.795283298E0,1.054277611E1,2.297109663E-1,3.491128206E0,1.110814437E1
3.797661683E0,1.055952644E1,2.823530734E-1,3.723232031E0,1.120025798E1
3.800040121E0,1.061695385E1,3.565305769E-1,3.945764542E0,1.133207311E1
3.802418558E0,1.065045357E1,4.785645306E-1,4.199403763E0,1.145845440E1
3.804796996E0,1.062173939E1,5.431707501E-1,4.481756687E0,1.154133983E1
3.807175381E0,1.057388306E1,5.623133183E-1,4.754538536E0,1.160727513E1
3.809553819E0,1.051167011E1,6.149554253E-1,4.989035130E0,1.165177455E1
3.811932256E0,1.042313576E1,6.508477330E-1,5.190032482E0,1.166198092E1
3.814310694E0,1.034656525E1,6.556333899E-1,5.371886730E0,1.167640504E1
3.816689131E0,1.024367332E1,6.532405615E-1,5.527420521E0,1.165812781E1
3.819067517E0,1.011206818E1,6.460621357E-1,5.637490273E0,1.159537044E1
3.821445954E0,9.968499184E0,6.388836503E-1,5.694917679E0,1.149831447E1
3.823824392E0,9.822537422E0,6.340979934E-1,5.728417397E0,1.138855072E1
3.826202829E0,9.671789169E0,6.771687865E-1,5.711667538E0,1.125278674E1
3.828581267E0,9.516255379E0,7.178468108E-1,5.666203976E0,1.109866154E1
3.830959704E0,9.346364975E0,7.178468108E-1,5.570491314E0,1.090413755E1
3.833338090E0,9.164510727E0,7.010970116E-1,5.414957523E0,1.066778135E1
3.835716527E0,8.965906143E0,6.460621357E-1,5.259424210E0,1.041472094E1
3.838094965E0,8.762516975E0,5.264210105E-1,5.051248550E0,1.012787908E1
3.840473402E0,8.556734085E0,4.331009090E-1,4.804787636E0,9.822996428E0
3.842851788E0,8.365307808E0,3.996013701E-1,4.553541660E0,9.532722467E0
3.845230225E0,8.231309891E0,4.043870270E-1,4.261617184E0,9.277896982E0
3.847608663E0,8.104490280E0,3.637090325E-1,3.967299938E0,9.030753887E0
3.849987100E0,8.104490280E0,1.196411327E-1,1.899901152E0,8.325064630E0
3.852365538E0,8.511270523E0,-1.627119333E-1,-4.345366001E0,9.557740673E0
3.854743923E0,9.061619759E0,-2.560320199E-1,-1.300738430E1,1.585466970E1
3.857122360E0,8.382058144E0,-3.062812984E-1,-1.217707443E1,1.478627231E1
3.859500798E0,7.393822193E0,2.871387079E-2,-3.412165165E0,8.143236594E0
3.861879235E0,7.570890903E0,2.416750938E-1,3.062813044E0,8.170533622E0
3.864257621E0,8.920442581E0,2.057827413E-1,4.654039860E0,1.006363401E1
3.866636058E0,1.014317513E1,7.178468257E-2,3.974478483E0,1.089429364E1
3.869014496E0,1.070309544E1,-5.503492057E-2,3.902693748E0,1.139255455E1
3.871392933E0,1.089691448E1,-2.775674164E-1,3.596412420E0,1.147841327E1
3.873771371E0,1.093519974E1,-4.426721931E-1,2.912065268E0,1.132495811E1
3.876149756E0,1.070309544E1,-3.278166950E-1,2.821137905E0,1.107350598E1
3.878528194E0,1.066481018E1,-2.871387079E-2,3.909872293E0,1.135896571E1
3.880906631E0,1.085145092E1,2.129612118E-1,4.529613495E0,1.176081366E1
3.883285069E0,1.123669529E1,5.144568682E-1,4.206582069E0,1.200930138E1
3.885663506E0,1.133480072E1,6.867401004E-1,4.072584152E0,1.206379961E1
3.888041892E0,1.145922756E1,8.398807645E-1,4.354937077E0,1.228758613E1
3.890420329E0,1.151665497E1,8.829515576E-1,3.900300980E0,1.219119735E1
3.892798767E0,1.148315620E1,1.057627559E0,4.063013077E0,1.222659101E1
3.895177204E0,1.126540947E1,1.198804140E0,4.551148891E0,1.220899415E1
3.897555642E0,1.111705399E1,1.500299811E0,4.445864677E0,1.206671047E1
3.899934027E0,1.115055370E1,1.828116536E0,4.242474556E0,1.206960846E1
3.902312465E0,1.124865913E1,2.155933142E0,3.275774240E0,1.191264357E1
3.904690902E0,1.083470058E1,2.340180635E0,2.361716032E0,1.133335276E1
3.907069340E0,1.005703354E1,2.383251429E0,2.574677229E0,1.065142121E1
3.909447777E0,9.588040352E0,2.313859463E0,2.988635540E0,1.030613438E1
3.911826163E0,9.662218094E0,2.419143677E0,3.093919754E0,1.042991151E1
3.914204600E0,9.769894600E0,2.474178553E0,3.105883837E0,1.054603785E1
3.916583038E0,9.760323524E0,2.467000246E0,3.026920557E0,1.051248085E1
3.918961475E0,9.755537987E0,2.498106956E0,3.067598581E0,1.052716585E1
3.921339860E0,9.650253296E0,2.565105915E0,2.660818815E0,1.033378507E1
3.923718298E0,9.566504478E0,2.639283419E0,2.691925526E0,1.028252342E1
3.926096735E0,9.442078590E0,2.608176708E0,2.517249346E0,1.011394968E1
3.928475173E0,9.353543282E0,2.644068956E0,1.954936147E0,9.914718751E0
3.930853610E0,9.198010445E0,2.555534601E0,1.854437590E0,9.724869768E0
3.933231996E0,9.064012527E0,2.438286304E0,2.088934183E0,9.615883174E0
3.935610433E0,9.011369705E0,2.301895380E0,2.423929453E0,9.611396376E0
3.937988871E0,9.195617676E0,2.227717876E0,2.696711063E0,9.838412572E0
3.940367308E0,9.310472488E0,2.246860504E0,2.397608280E0,9.873287474E0
3.942745746E0,9.284152031E0,2.165504456E0,2.325823545E0,9.812968136E0
3.945124131E0,9.190832138E0,2.053041935E0,2.555534601E0,9.757926710E0
3.947502569E0,9.286544800E0,2.002792597E0,2.950350285E0,9.947645918E0
3.949881006E0,9.456435204E0,1.935793519E0,3.244667530E0,1.018328683E1
3.952259444E0,9.456435204E0,1.828116536E0,3.180061340E0,1.014292694E1
3.954637881E0,9.446864128E0,1.789831281E0,3.084348440E0,1.009752163E1
3.957016267E0,9.516255379E0,1.782652855E0,3.153740168E0,1.018248716E1
3.959394704E0,9.667003632E0,1.751546144E0,3.369094372E0,1.038603245E1
3.961773142E0,9.738788605E0,1.753939033E0,3.445664644E0,1.047821122E1
3.964151579E0,9.667003632E0,1.744367719E0,3.249453068E0,1.034662859E1
3.966530017E0,9.643074989E0,1.756331801E0,3.139383316E0,1.029219725E1
3.968908402E0,9.710074425E0,1.804188251E0,3.247060299E0,1.039634749E1
3.971286840E0,9.688538551E0,1.792224169E0,3.333201885E0,1.040144613E1
3.973665277E0,9.650253296E0,1.753939033E0,3.347558975E0,1.036387195E1
3.976043715E0,9.509077072E0,1.677368641E0,3.323630571E0,1.021188682E1
3.978422152E0,9.454042435E0,1.584048629E0,3.282952785E0,1.013241864E1
3.980800538E0,9.391828537E0,1.521835208E0,3.172882795E0,1.002943722E1
3.983178975E0,9.324830055E0,1.454836130E0,3.101098061E0,9.934073329E0
3.985557413E0,9.303294182E0,1.438086390E0,3.074777126E0,9.903213089E0
3.987935850E0,9.341579437E0,1.462014675E0,3.084348440E0,9.945642191E0
3.990314235E0,9.296115875E0,1.395015597E0,3.146561861E0,9.912854807E0
3.992692673E0,9.181260109E0,1.284945726E0,3.043670416E0,9.757589472E0
3.995071110E0,9.190832138E0,1.217946768E0,3.065205812E0,9.764746612E0
3.997449548E0,9.164510727E0,1.117448211E0,3.113062143E0,9.743105423E0
3.999827985E0,9.097511292E0,1.050449133E0,3.211168051E0,9.704625461E0
4.002206371E0,9.126225471E0,9.906286001E-1,3.280559778E0,9.748405451E0
4.004584808E0,9.011369705E0,8.925228715E-1,3.180061340E0,9.597612785E0
4.006963246E0,8.985049248E0,8.183453679E-1,3.146561861E0,9.555189724E0
4.009341683E0,8.992227554E0,7.992027402E-1,3.213560820E0,9.582580788E0
4.011720121E0,8.968298912E0,7.848458290E-1,3.096312523E0,9.520163843E0
4.014098506E0,8.968298912E0,7.752745152E-1,3.156133175E0,9.539004800E0
4.016476944E0,8.915657043E0,7.250252366E-1,3.218346357E0,9.506437576E0
4.018855381E0,8.815158844E0,6.675975323E-1,3.180061340E0,9.394972168E0
4.021233819E0,8.769695282E0,6.317051649E-1,3.163311481E0,9.344150378E0
4.023612204E0,8.755337715E0,5.910272002E-1,3.172882795E0,9.331261270E0
4.025990642E0,8.781659126E0,5.790630579E-1,3.203989506E0,9.365810151E0
4.028369079E0,8.817551613E0,6.029912829E-1,3.232703447E0,9.410801587E0
4.030747517E0,8.879764557E0,6.460621357E-1,3.309273720E0,9.498363408E0
