"Time (s)","Acceleration x (m/s^2)","Acceleration y (m/s^2)","Acceleration z (m/s^2)","Absolute acceleration (m/s^2)"
1.790422700E-2,2.614158690E-1,1.002114105E1,1.597807288E0,1.015108833E1
2.005543100E-2,2.518445849E-1,1.002114105E1,1.583450437E0,1.014859640E1
2.221047900E-2,2.422732860E-1,1.002592659E1,1.588235974E0,1.015383641E1
2.436785800E-2,2.327020019E-1,1.003071213E1,1.564307809E0,1.015462431E1
2.652447400E-2,2.321037948E-1,1.002592659E1,1.540379524E0,1.014622320E1
2.868397900E-2,2.273181528E-1,1.003549862E1,1.521835208E0,1.015277738E1
3.084347400E-2,2.177468538E-1,1.001156998E1,1.469193101E0,1.012114003E1
3.300093300E-2,2.219343036E-1,9.958928108E0,1.441077471E0,1.006509852E1
3.515837300E-2,2.075773627E-1,9.949356079E0,1.412363529E0,1.005124597E1
3.731849900E-2,2.267199457E-1,9.930213928E0,1.359721422E0,1.002543729E1
3.947650900E-2,2.219343036E-1,9.911071777E0,1.335793257E0,1.000314662E1
4.163650100E-2,2.458625287E-1,9.882955551E0,1.340578914E0,9.976492902E0
4.379628100E-2,2.315055877E-1,9.830313683E0,1.345962763E0,9.924730611E0
4.595364000E-2,2.261217386E-1,9.782457352E0,1.317248821E0,9.873335168E0
4.811084600E-2,2.404786795E-1,9.734601021E0,1.317248821E0,9.826262336E0
5.026833700E-2,2.356930375E-1,9.705886841E0,1.302891970E0,9.795780625E0
5.242632500E-2,2.213360965E-1,9.624530792E0,1.322632670E0,9.717506873E0
5.458382600E-2,1.926222295E-1,9.366703987E0,1.351944804E0,9.465727741E0
5.674156100E-2,1.776670814E-1,9.256634712E0,1.319043517E0,9.351830173E0
5.889901100E-2,1.728814393E-1,9.304491043E0,1.323829174E0,9.399785383E0
6.105591200E-2,1.639083475E-1,9.328418732E0,1.333400369E0,9.424660128E0
6.321333100E-2,1.639083475E-1,9.333204269E0,1.337587833E0,9.429989878E0
6.541372200E-2,1.447657645E-1,9.285347939E0,1.376471281E0,9.387934632E0
6.761434200E-2,8.255238086E-2,9.128020287E0,1.391426325E0,9.233831083E0
6.981522100E-2,9.212367237E-2,9.051449776E0,1.396211982E0,9.158964882E0
7.201839200E-2,1.112662554E-1,9.137591362E0,1.467398524E0,9.255334381E0
7.421678000E-2,1.405783296E-1,9.195018768E0,1.557727575E0,9.327092131E0
7.641476400E-2,1.746760458E-1,9.199805260E0,1.614557028E0,9.342040619E0
7.861523800E-2,1.698904037E-1,9.214161873E0,1.648056626E0,9.361929951E0
8.081330500E-2,1.651047617E-1,9.276374817E0,1.676172256E0,9.428040240E0
8.301351900E-2,1.794617027E-1,9.309874535E0,1.671386600E0,9.460417724E0
8.521675300E-2,1.794617027E-1,9.385847092E0,1.666600943E0,9.534353194E0
8.741650100E-2,1.752742529E-1,9.462417603E0,1.699502230E0,9.615423848E0
8.961718300E-2,1.800599098E-1,9.519845009E0,1.689931035E0,9.670353534E0
9.182063400E-2,1.896311939E-1,9.562915802E0,1.685145378E0,9.712107576E0
9.402127400E-2,1.657029688E-1,9.634700775E0,1.747358680E0,9.793272122E0
9.622264100E-2,1.758724600E-1,9.649057388E0,1.799402595E0,9.816979643E0
9.841873600E-2,2.045863420E-1,9.691530228E0,1.837089539E0,9.866230876E0
1.006191790E-1,2.243271172E-1,9.706484795E0,1.908874273E0,9.894946726E0
1.028197770E-1,2.195414752E-1,9.711270332E0,1.975275040E0,9.912551710E0
1.050206460E-1,2.099701911E-1,9.706484795E0,2.008774519E0,9.914389019E0
1.072257270E-1,2.105683982E-1,9.682557106E0,2.042274237E0,9.897834875E0
1.094218540E-1,1.770688742E-1,9.668199539E0,2.061416626E0,9.887106464E0
1.116224830E-1,1.722832322E-1,9.658628464E0,2.056631088E0,9.876665264E0
1.138228430E-1,1.579262912E-1,9.644271851E0,2.099701881E0,9.871457250E0
1.160234420E-1,1.579262912E-1,9.649057388E0,2.133201361E0,9.883309023E0
1.182284300E-1,1.914258152E-1,9.663414001E0,2.142772675E0,9.899984280E0
1.204305750E-1,2.153540403E-1,9.634700775E0,2.156531334E0,9.875447523E0
1.226317440E-1,2.159522474E-1,9.629914284E0,2.190030813E0,9.878163769E0
1.248323840E-1,2.542374134E-1,9.615557671E0,2.213959217E0,9.870420528E0
1.270332830E-1,2.925225794E-1,9.596415520E0,2.246860504E0,9.860281051E0
1.292323570E-1,3.068794906E-1,9.572486877E0,2.261217356E0,9.840720704E0
1.314324160E-1,3.457628787E-1,9.558130264E0,2.304288149E0,9.838046045E0
1.336330240E-1,3.505485058E-1,9.548559189E0,2.308475733E0,9.829899646E0
1.358333740E-1,3.601198196E-1,9.572486877E0,2.313261271E0,9.854611561E0
1.380340040E-1,3.840480447E-1,9.567701340E0,2.294118643E0,9.846389296E0
1.402348930E-1,3.978067636E-1,9.586843491E0,2.265404940E0,9.858898411E0
1.424354910E-1,4.223332107E-1,9.548559189E0,2.284547329E0,9.827131037E0
1.446334440E-1,4.223332107E-1,9.572486877E0,2.279761791E0,9.849273282E0
1.468314380E-1,4.360919297E-1,9.591629982E0,2.231905222E0,9.857532288E0
1.490345270E-1,4.408775866E-1,9.634700775E0,2.212762833E0,9.895360096E0
1.512351360E-1,4.648058116E-1,9.687342644E0,2.184048891E0,9.941364167E0
1.534384110E-1,4.839483798E-1,9.725627899E0,2.154736757E0,9.973210845E0
1.556420600E-1,4.695914388E-1,9.754341125E0,2.150549412E0,9.999627477E0
1.578402720E-1,4.695914388E-1,9.768698692E0,2.159522533E0,1.001556428E1
1.600377990E-1,4.456632137E-1,9.792028427E0,2.121835470E0,1.002918851E1
1.622386770E-1,4.307080805E-1,9.825528145E0,2.078764677E0,1.005225225E1
1.644388600E-1,4.211367965E-1,9.835099220E0,2.017149448E0,1.004865288E1
1.666343750E-1,3.822534084E-1,9.849455833E0,1.954936147E0,1.004886428E1
1.688381490E-1,3.439682424E-1,9.868598938E0,1.936391711E0,1.006266227E1
1.710384880E-1,2.769692242E-1,9.868598938E0,1.884347796E0,1.005070762E1
1.732390960E-1,2.285145670E-1,9.906884193E0,1.808375716E0,1.007317210E1
1.754218450E-1,1.806581169E-1,9.921240807E0,1.736590981E0,1.007369866E1
1.775764170E-1,1.274178028E-1,9.939785004E0,1.655833244E0,1.007756642E1
1.797394520E-1,7.896314561E-2,9.930213928E0,1.608574986E0,1.005996508E1
1.819063220E-1,6.939185411E-2,9.934999466E0,1.570888042E0,1.005866387E1
1.840630090E-1,4.067798331E-2,9.906285286E0,1.532602906E0,1.002422139E1
1.862201240E-1,2.093719877E-2,9.868000984E0,1.518844128E0,9.984226023E0
1.883772090E-1,-7.776673418E-3,9.835099220E0,1.504487276E0,9.949508486E0
1.905350860E-1,-2.691925503E-2,9.796813965E0,1.490728498E0,9.909619567E0
1.926617840E-1,-4.606183618E-2,9.772886276E0,1.476371527E0,9.883880855E0
1.948492550E-1,-6.999006122E-2,9.744172096E0,1.453041553E0,9.852163123E0
1.970023920E-1,-8.015955985E-2,9.734601021E0,1.433898926E0,9.839966906E0
1.991703820E-1,-8.973085135E-2,9.710672379E0,1.400399446E0,9.811540566E0
2.013176290E-1,-1.136590764E-1,9.686744690E0,1.400997639E0,9.788193677E0
2.034714970E-1,-1.184447184E-1,9.658030510E0,1.362712502E0,9.754412737E0
2.056343290E-1,-1.381855011E-1,9.624530792E0,1.329213023E0,9.716866546E0
2.077920240E-1,-1.190429255E-1,9.610174179E0,1.329213023E0,9.702392810E0
2.099511630E-1,-1.190429255E-1,9.586245537E0,1.301097274E0,9.674870998E0
2.121075040E-1,-1.238285750E-1,9.567103386E0,1.305882931E0,9.656610738E0
2.142625750E-1,-1.333998591E-1,9.571888924E0,1.301097274E0,9.660833670E0
2.164229240E-1,-1.238285750E-1,9.581459999E0,1.296311617E0,9.669546682E0
2.185789510E-1,-1.046859920E-1,9.595816612E0,1.310070395E0,9.685398291E0
2.207372860E-1,-8.973085135E-2,9.595816612E0,1.343569875E0,9.689836329E0
2.228864250E-1,-6.580262631E-2,9.605388641E0,1.367498159E0,9.702467323E0
2.250213430E-1,-5.623133108E-2,9.610174179E0,1.400399446E0,9.711834447E0
2.272095970E-1,-4.666004330E-2,9.638887405E0,1.395613790E0,9.739510533E0
2.293678720E-1,-6.101697683E-2,9.658030510E0,1.409970760E0,9.760599057E0
2.315321070E-1,-6.101697683E-2,9.691530228E0,1.433898926E0,9.797221410E0
2.336822630E-1,-6.999006122E-2,9.720243454E0,1.443470240E0,9.827086941E0
2.358372220E-1,-6.999006122E-2,9.744172096E0,1.466800332E0,9.854201726E0
2.379966150E-1,-7.956135273E-2,9.744172096E0,1.509871125E0,9.860777386E0
2.401539130E-1,-8.913264424E-2,9.720243454E0,1.552941918E0,9.843917210E0
2.423119830E-1,-9.810572863E-2,9.720243454E0,1.581655741E0,9.848573116E0
2.444640620E-1,-9.810572863E-2,9.701101303E0,1.615155339E0,9.835126740E0
2.466036410E-1,-1.076770201E-1,9.672387123E0,1.639083505E0,9.810874667E0
2.487715590E-1,-8.853443712E-2,9.653244972E0,1.648654819E0,9.793418175E0
2.509426710E-1,-9.332008660E-2,9.638887405E0,1.634297848E0,9.776900762E0
2.531038340E-1,-9.332008660E-2,9.619745255E0,1.634297848E0,9.758029353E0
2.552602360E-1,-1.172483116E-1,9.634101868E0,1.643869162E0,9.774045825E0
2.574167100E-1,-1.411765367E-1,9.662816048E0,1.667797327E0,9.806706517E0
2.595716270E-1,-1.651047617E-1,9.677172661E0,1.648654819E0,9.817993329E0
2.617293320E-1,-1.555334777E-1,9.696315765E0,1.643869162E0,9.835905444E0
2.638877080E-1,-1.698904037E-1,9.715457916E0,1.624726534E0,9.851838487E0
2.660411200E-1,-1.651047617E-1,9.705886841E0,1.615155339E0,9.840743149E0
2.681892930E-1,-1.698904037E-1,9.701101303E0,1.639083505E0,9.840062194E0
2.703581060E-1,-1.555334777E-1,9.696315765E0,1.624726534E0,9.832724261E0
2.725162070E-1,-1.268195957E-1,9.672387123E0,1.639083505E0,9.811103435E0
2.746701380E-1,-1.124626622E-1,9.672387123E0,1.653440475E0,9.813337145E0
2.768056670E-1,-9.332008660E-2,9.672387123E0,1.658226132E0,9.813943917E0
2.789836670E-1,-8.853443712E-2,9.686744690E0,1.643869162E0,9.825638242E0
2.811268150E-1,-8.853443712E-2,9.725028992E0,1.652842283E0,9.864882911E0
2.833104880E-1,-8.853443712E-2,9.772886276E0,1.667199135E0,9.914469097E0
2.854618760E-1,-1.070788130E-1,9.820742607E0,1.681556106E0,9.964240170E0
2.876231520E-1,-1.262213886E-1,9.859027863E0,1.686341763E0,1.000300509E1
2.897748040E-1,-1.262213886E-1,9.887741089E0,1.676770449E0,1.002970163E1
2.919295790E-1,-1.214357466E-1,9.934999466E0,1.667199135E0,1.007464709E1
2.940905890E-1,-1.166501045E-1,9.939785004E0,1.671984792E0,1.008010250E1
2.962484470E-1,-1.070788130E-1,9.944570541E0,1.714457393E0,1.009184390E1
2.984075160E-1,-9.750752151E-2,9.930213928E0,1.709671736E0,1.007678688E1
3.005604190E-1,-8.793623000E-2,9.925428391E0,1.695314884E0,1.006955580E1
3.027097820E-1,-6.879365444E-2,9.902098656E0,1.695314884E0,1.004641144E1
3.048778110E-1,-4.486542568E-2,9.902098656E0,1.685743570E0,1.004466535E1
3.070355260E-1,-3.050848842E-2,9.892526627E0,1.700100541E0,1.003759711E1
3.091957750E-1,-1.794616925E-3,9.878170013E0,1.700100541E0,1.002340201E1
3.113474170E-1,2.691925503E-2,9.878170013E0,1.689931035E0,1.002171813E1
3.134957720E-1,5.084748194E-2,9.873384476E0,1.689931035E0,1.001709406E1
3.156664060E-1,6.999006122E-2,9.906884193E0,1.694716692E0,1.005103565E1
3.178230130E-1,9.391828626E-2,9.902098656E0,1.675574064E0,1.004330259E1
3.199844820E-1,1.226321608E-1,9.930811882E0,1.660618901E0,1.006944479E1
3.221299580E-1,1.609173268E-1,9.940383911E0,1.670190215E0,1.008100501E1
3.242645510E-1,2.087737769E-1,9.963713646E0,1.664806366E0,1.010399705E1
3.264527320E-1,2.285145670E-1,9.926026344E0,1.717448473E0,1.007610278E1
3.286101930E-1,2.524427772E-1,9.873384476E0,1.741376638E0,1.002895014E1
3.307759350E-1,2.955136001E-1,9.806385040E0,1.741376638E0,9.964181273E0
3.329239750E-1,3.182454109E-1,9.634700775E0,1.593619823E0,9.770791335E0
3.350694520E-1,2.877369225E-1,9.361918449E0,1.179661512E0,9.440334256E0
3.372378180E-1,1.160518974E-1,8.922237396E0,4.336991012E-1,8.933525794E0
3.393969170E-1,-1.471585929E-1,8.592027664E0,-4.935196638E-1,8.607447746E0
3.415580910E-1,-3.314059377E-1,8.605786324E0,-1.026520967E0,8.673127085E0
3.437129570E-1,-3.445664644E-1,8.758927345E0,-7.692924738E-1,8.799394593E0
3.458698780E-1,-2.452643216E-1,8.873783112E0,6.400800496E-2,8.877402679E0
3.480276740E-1,-1.447657645E-1,8.836095810E0,9.930213690E-1,8.892898162E0
3.501858770E-1,-6.101697683E-2,8.774480820E0,1.602592945E0,8.919839734E0
3.523426660E-1,2.213360928E-2,8.740981102E0,1.907677889E0,8.946757818E0
3.545014790E-1,2.213360928E-2,8.803194046E0,1.950150490E0,9.016640297E0
3.566563770E-1,5.563312769E-2,8.937192917E0,1.878365755E0,9.132621211E0
3.588123020E-1,5.563312769E-2,9.094520569E0,1.820339799E0,9.275076086E0
3.609717560E-1,3.649054468E-2,9.242876053E0,1.829911113E0,9.422349175E0
3.631296240E-1,-2.512463741E-2,9.409774780E0,1.944168448E0,9.608552629E0
3.652880090E-1,-7.238288224E-2,9.562915802E0,2.096710920E0,9.790341904E0
3.674394690E-1,-1.142572835E-1,9.692128181E0,2.239681959E0,9.948194745E0
3.695775510E-1,-1.423729509E-1,9.859027863E0,2.353939295E0,1.013714608E1
3.717605340E-1,-1.328016520E-1,9.983454704E0,2.386840582E0,1.026567154E1
3.739167940E-1,-1.328016520E-1,1.009292603E1,2.414956331E0,1.037867073E1
3.760806940E-1,-7.956135273E-2,1.015035343E1,2.433500528E0,1.043829151E1
3.782304240E-1,-4.127619043E-2,1.020778179E1,2.462214470E0,1.050061964E1
3.803840700E-1,2.632104978E-2,1.025085258E1,2.485544443E0,1.054791935E1
3.825470640E-1,1.172483116E-1,1.026999474E1,2.508276224E0,1.057251099E1
3.847053180E-1,1.986042857E-1,1.030827999E1,2.541177750E0,1.061874119E1
3.868633480E-1,2.997010350E-1,1.035613632E1,2.564507723E0,1.067314762E1
3.890203000E-1,3.954139352E-1,1.042313576E1,2.573480844E0,1.074341263E1
3.911763980E-1,4.624129832E-1,1.045184898E1,2.572882652E0,1.077379683E1
3.933344780E-1,5.300102234E-1,1.047577763E1,2.610569477E0,1.080915819E1
3.954912980E-1,5.730810165E-1,1.047099209E1,2.605783939E0,1.080556371E1
3.976491960E-1,5.778666735E-1,1.043749237E1,2.615355253E0,1.077567910E1
3.998039000E-1,5.294120312E-1,1.038006496E1,2.572882652E0,1.070727561E1
4.019504860E-1,4.618147612E-1,1.029392338E1,2.444268227E0,1.059021145E1
4.041064920E-1,3.409772217E-1,1.016949654E1,2.230708838E0,1.041686072E1
4.062609720E-1,1.722832322E-1,1.002652550E1,1.998605132E0,1.022522946E1
4.084334170E-1,3.589233849E-3,9.902098656E0,1.785643935E0,1.006181370E1
4.105905110E-1,-1.794617027E-1,9.825528145E0,1.591227055E0,9.955160138E0
4.127513690E-1,-3.332005441E-1,9.763314247E0,1.482951880E0,9.880914632E0
4.149167650E-1,-4.486542344E-1,9.710672379E0,1.426122308E0,9.825083893E0
4.170663720E-1,-5.252245665E-1,9.725028992E0,1.417149186E0,9.841766180E0
4.192252670E-1,-5.730810165E-1,9.753145218E0,1.455434322E0,9.877780751E0
4.213794320E-1,-5.682953596E-1,9.801001549E0,1.488933921E0,9.929728858E0
4.235329350E-1,-5.108676553E-1,9.853643417E0,1.483550072E0,9.977785084E0
4.256684840E-1,-4.821537733E-1,9.911071777E0,1.392622828E0,1.002004064E1
4.278536350E-1,-4.253242314E-1,9.968499184E0,1.301695466E0,1.006212143E1
4.300108410E-1,-3.200400174E-1,1.006839943E1,1.224527001E0,1.014763810E1
4.321754310E-1,-2.099701911E-1,1.014496994E1,1.233500123E0,1.022184059E1
4.343208780E-1,-9.930214286E-2,1.022154045E1,1.294517040E0,1.030366558E1
4.364668850E-1,2.093719877E-2,1.023589706E1,1.398604870E0,1.033102718E1
4.386559630E-1,1.363908947E-1,1.022154045E1,1.488335729E0,1.033022918E1
4.407995280E-1,2.374876440E-1,1.014078236E1,1.545165181E0,1.026057516E1
4.429609750E-1,3.188436031E-1,1.003549862E1,1.587637782E0,1.016530804E1
4.451105520E-1,3.858426511E-1,9.935597420E0,1.616351724E0,1.007360728E1
4.472743500E-1,4.193421602E-1,9.835099220E0,1.606780410E0,9.974305380E0
4.494285360E-1,4.432703853E-1,9.777671814E0,1.606780410E0,9.918724617E0
4.515860880E-1,4.426721931E-1,9.725028992E0,1.535593987E0,9.855465309E0
4.537433850E-1,4.235295951E-1,9.696315765E0,1.526022673E0,9.824798315E0
4.558976010E-1,3.996013701E-1,9.620343208E0,1.550549030E0,9.752686143E0
4.580461500E-1,3.852444589E-1,9.543772697E0,1.607976794E0,9.685948584E0
4.602153200E-1,3.571287692E-1,9.495916367E0,1.698904037E0,9.653302208E0
4.623730640E-1,3.194418252E-1,9.491130829E0,1.813161373E0,9.668048493E0
4.645334850E-1,3.056831062E-1,9.505488396E0,1.946561217E0,9.707566759E0
4.666846800E-1,3.068794906E-1,9.458230019E0,2.294716835E0,9.737454260E0
4.688328120E-1,2.979064286E-1,9.191430092E0,3.501297712E0,9.840234806E0
4.710050740E-1,2.829512656E-1,9.219545364E0,3.406183004E0,9.832708722E0
4.731609780E-1,2.410768867E-1,9.396016121E0,2.566900492E0,9.743316435E0
4.753222020E-1,2.141576260E-1,9.553344727E0,1.904088616E0,9.743603667E0
4.774748820E-1,1.746760458E-1,9.620343208E0,1.589432478E0,9.752323352E0
4.796330960E-1,1.698904037E-1,9.601201057E0,1.532602906E0,9.724237562E0
4.817903720E-1,1.507478207E-1,9.548559189E0,1.561316729E0,9.676539537E0
4.839477520E-1,1.310070455E-1,9.538987160E0,1.533201098E0,9.662305340E0
4.861054670E-1,8.733802289E-2,9.547960281E0,1.313659668E0,9.638302506E0
4.882626530E-1,-2.374876440E-1,9.952945709E0,-5.682953596E-1,9.971985173E0
4.904129420E-1,-2.973082066E-1,9.876375198E0,-1.049252748E0,9.936403301E0
4.925660170E-1,-2.177468538E-1,9.742975235E0,-4.911268353E-1,9.757775653E0
4.947347700E-1,-1.196411327E-1,9.566504478E0,1.184447184E-1,9.567985738E0
4.968934720E-1,7.896314561E-2,9.399605751E0,5.563312769E-1,9.416386140E0
4.990528860E-1,2.769692242E-1,9.261420250E0,9.320043921E-1,9.312317068E0
5.012107740E-1,4.175475538E-1,9.262018204E0,1.345962763E0,9.368614782E0
5.033784980E-1,6.155536175E-1,9.285946846E0,1.731207132E0,9.465980838E0
5.055234670E-1,7.615157962E-1,9.319445610E0,2.111067772E0,9.585853114E0
5.076801340E-1,8.111668825E-1,9.363115311E0,2.482553482E0,9.720544832E0
5.098350510E-1,8.889335990E-1,9.391828537E0,2.791825771E0,9.838238529E0
5.119933460E-1,9.810572863E-1,9.415757179E0,3.034697294E0,9.941244606E0
5.141416410E-1,8.249256015E-1,9.497113228E0,3.369094372E0,1.011071010E1
5.162831210E-1,5.736792088E-1,9.196215630E0,4.095914364E0,1.008345200E1
5.184513140E-1,2.069791555E-1,9.272786140E0,4.502694130E0,1.031026952E1
5.206097510E-1,1.202393398E-1,9.440283775E0,4.345963955E0,1.039330640E1
5.227708110E-1,5.682953820E-2,9.501898766E0,4.083950043E0,1.034253149E1
5.249181410E-1,4.606183618E-2,9.492327690E0,3.812364578E0,1.022939540E1
5.270850830E-1,2.093719877E-2,9.434899330E0,3.602394581E0,1.009925792E1
5.292420340E-1,-3.589233849E-3,9.358329773E0,3.469592810E0,9.980802738E0
5.314049580E-1,2.452643216E-2,9.300901413E0,3.364906788E0,9.890903211E0
5.335561520E-1,1.489532143E-1,9.286544800E0,3.378067255E0,9.882987390E0
5.357138770E-1,1.435693651E-1,9.267401695E0,3.268595695E0,9.827973553E0
5.378709000E-1,1.429711580E-1,9.257830620E0,3.068196774E0,9.754060692E0
5.400308320E-1,1.854437590E-1,9.320044518E0,2.891726255E0,9.760107578E0
5.421840710E-1,2.225325108E-1,9.405587196E0,2.709871531E0,9.790709624E0
5.443298640E-1,2.793620527E-1,9.506086349E0,2.542972326E0,9.844309478E0
5.464810680E-1,3.314059377E-1,9.601201057E0,2.365903378E0,9.893957269E0
5.486587420E-1,3.690928817E-1,9.677771568E0,2.179263115E0,9.926967302E0
5.508183390E-1,3.870390654E-1,9.687342644E0,1.955534339E0,9.890324630E0
5.529785150E-1,4.199403822E-1,9.663414001E0,1.783849239E0,9.835651387E0
5.551295670E-1,4.283152521E-1,9.605986595E0,1.588235974E0,9.745815817E0
5.572822880E-1,4.229314029E-1,9.548559189E0,1.388435364E0,9.658240332E0
5.594465240E-1,4.121637046E-1,9.467203140E0,1.183250785E0,9.549758983E0
5.616043900E-1,3.397808075E-1,9.309276581E0,1.055832982E0,9.375119452E0
5.637624300E-1,2.817548811E-1,9.142376900E0,9.421738982E-1,9.195114618E0
5.659183150E-1,2.805584669E-1,9.037093163E0,7.848458290E-1,9.075447584E0
5.680755920E-1,2.847459018E-1,8.984451294E0,6.323033571E-1,9.011173776E0
5.702335310E-1,2.697907388E-1,8.970093727E0,5.180460811E-1,8.989090068E0
5.723910630E-1,2.835494876E-1,8.989236832E0,4.133601189E-1,9.003201970E0
5.745492860E-1,3.074777126E-1,9.026923180E0,3.224328458E-1,9.037911682E0
5.767059640E-1,3.020938635E-1,9.079565048E0,2.410768867E-1,9.087787422E0
5.788642180E-1,2.877369225E-1,9.136993408E0,1.698904037E-1,9.143101434E0
5.810204880E-1,2.967100143E-1,9.175278664E0,1.076770201E-1,9.180706385E0
5.831781010E-1,3.391826153E-1,9.203991890E0,-4.546362907E-2,9.210351703E0
5.853352360E-1,3.146561682E-1,9.236893654E0,-1.357926875E-1,9.243249025E0
5.874929110E-1,2.572284341E-1,9.284749985E0,-1.639083475E-1,9.289758592E0
5.896482040E-1,2.189432681E-1,9.351749420E0,-1.639083475E-1,9.355747929E0
5.917990010E-1,1.902294010E-1,9.466604233E0,-1.692921966E-1,9.470028657E0
5.939657500E-1,1.567298770E-1,9.600004196E0,-1.740778536E-1,9.602861444E0
5.961239030E-1,1.238285750E-1,9.714859962E0,-1.597209126E-1,9.716961890E0
5.982826150E-1,9.511470050E-2,9.805189133E0,-1.884347796E-1,9.807460854E0
6.004395160E-1,8.554340899E-2,9.881759644E0,-1.980060786E-1,9.884113402E0
6.026020820E-1,6.101697683E-2,9.943972588E0,-2.219343036E-1,9.946636051E0
6.047528490E-1,3.230310604E-2,9.987043381E0,-2.458625287E-1,9.990121489E0
6.069110010E-1,3.230310604E-2,1.003011417E1,-2.506481707E-1,1.003329748E1
6.090679940E-1,1.794617064E-2,1.009172916E1,-2.841476798E-1,1.009574462E1
6.112253340E-1,2.751746029E-2,1.014915752E1,-3.080759048E-1,1.015386953E1
6.133836580E-1,1.316052489E-2,1.015394306E1,-3.266202807E-1,1.015920340E1
6.155450860E-1,8.374879137E-3,1.017787075E1,-3.409772217E-1,1.018358427E1
6.177154660E-1,7.776673418E-3,1.017308521E1,-3.984049559E-1,1.018088649E1
6.198455110E-1,7.776673418E-3,1.017787075E1,-4.079762697E-1,1.018604723E1
6.220254530E-1,7.776673418E-3,1.018265629E1,-4.414757788E-1,1.019222500E1
6.241683980E-1,2.691925503E-2,1.016829967E1,-4.701896608E-1,1.017920042E1
6.263483090E-1,4.127619043E-2,1.017308521E1,-4.893322289E-1,1.018493066E1
6.285027070E-1,5.563312769E-2,1.019222832E1,-5.084748268E-1,1.020505560E1
6.306774720E-1,6.999006122E-2,1.019222832E1,-5.036891699E-1,1.020490664E1
6.328094400E-1,9.870393574E-2,1.023529911E1,-4.899304509E-1,1.024749346E1
6.349579890E-1,1.226321608E-1,1.028315544E1,-4.660021961E-1,1.029443940E1
6.371233030E-1,1.615155339E-1,1.034955597E1,-4.474578202E-1,1.036048332E1
6.392853830E-1,3.708875179E-2,1.056490993E1,-3.708875179E-1,1.057148311E1
6.414464340E-1,-4.558327198E-1,1.095613670E1,-3.308077157E-1,1.097060384E1
6.436044220E-1,3.340380430E0,8.449654579E0,-4.755735099E-1,9.098405030E0
6.457673150E-1,-2.465205431E0,1.269930840E1,-1.136590764E-1,1.293686940E1
6.479010740E-1,2.057827413E-1,1.056969547E1,-1.860419661E-1,1.057333536E1
6.500627770E-1,8.907282352E-1,1.004447079E1,-1.555334777E-1,1.008508705E1
6.522182120E-1,3.116651475E-1,1.040279675E1,-7.178468257E-2,1.040771196E1
6.543728970E-1,1.974078640E-2,1.046441174E1,5.383851007E-2,1.046456885E1
6.565293500E-1,6.819544733E-2,1.032144070E1,2.015953064E-1,1.032363450E1
6.586893240E-1,1.788634956E-1,1.019761181E1,3.152543902E-1,1.020405136E1
6.608369670E-1,1.555334777E-1,1.016889763E1,4.492524564E-1,1.018000478E1
6.630204690E-1,1.034895778E-1,1.017368412E1,5.970092416E-1,1.019171127E1
6.651784900E-1,2.093719840E-1,1.005882835E1,7.351947427E-1,1.008783306E1
6.673333360E-1,2.291127741E-1,1.003549862E1,8.398807645E-1,1.007318842E1
6.694675630E-1,1.381855011E-1,1.006421185E1,9.164510965E-1,1.010679662E1
6.716494260E-1,2.249253243E-1,9.958928108E0,1.040279627E0,1.001563888E1
6.738138650E-1,2.590230405E-1,9.868000984E0,1.107278705E0,9.933307732E0
6.759682850E-1,1.776670814E-1,9.825528145E0,1.212562919E0,9.901660353E0
6.781217480E-1,1.830509305E-1,9.705886841E0,1.274776220E0,9.790955082E0
6.802749770E-1,2.500499785E-1,9.605388641E0,1.355534077E0,9.703787332E0
6.824357730E-1,1.980060786E-1,9.610174179E0,1.436890006E0,9.719017803E0
6.845914840E-1,1.980060786E-1,9.619745255E0,1.513460279E0,9.740085584E0
6.867495350E-1,2.703889608E-1,9.572486877E0,1.579861164E0,9.705749662E0
6.889066700E-1,2.560320199E-1,9.538987160E0,1.642074585E0,9.682677180E0
6.910644060E-1,2.039881349E-1,9.548559189E0,1.733001828E0,9.706693004E0
6.932220080E-1,2.620140910E-1,9.529416084E0,1.804188251E0,9.702242913E0
6.953804250E-1,2.667997181E-1,9.538987160E0,1.861017823E0,9.722491731E0
6.975371940E-1,2.141576260E-1,9.658628464E0,1.889731646E0,9.844087209E0
6.996969740E-1,2.482553422E-1,9.734601021E0,1.936989903E0,9.928545595E0
7.018547500E-1,2.865405083E-1,9.772886276E0,1.993819475E0,9.978312870E0
7.039966880E-1,2.632105052E-1,9.835099220E0,2.036890268E0,1.004725726E1
7.061665390E-1,2.584248483E-1,9.849455833E0,2.036890268E0,1.006118709E1
7.083226560E-1,3.110669553E-1,9.820742607E0,2.041077614E0,1.003542455E1
7.104863320E-1,2.823530734E-1,9.859027863E0,2.036890268E0,1.007120031E1
7.126438530E-1,2.823530734E-1,9.892526627E0,1.993819475E0,1.009540105E1
7.147909480E-1,3.104687333E-1,9.873384476E0,1.960319996E0,1.007089700E1
7.169550320E-1,3.152543902E-1,9.902098656E0,1.931606054E0,1.009366361E1
7.191099590E-1,2.913261652E-1,9.935597420E0,1.883749604E0,1.011679196E1
7.212704100E-1,3.098705411E-1,9.926026344E0,1.807777524E0,1.009406154E1
7.234232310E-1,3.098705411E-1,9.916455269E0,1.764706731E0,1.007701815E1
7.255721270E-1,2.757728100E-1,9.949954987E0,1.679163337E0,1.009441650E1
7.277416320E-1,2.805584669E-1,9.930811882E0,1.626521230E0,1.006704073E1
7.298999170E-1,2.751746178E-1,9.887741089E0,1.564906001E0,1.001459314E1
7.320596050E-1,2.368894368E-1,9.878170013E0,1.488933921E0,9.992561415E0
7.342111960E-1,2.171486616E-1,9.849455833E0,1.431506157E0,9.955307310E0
7.363562560E-1,2.267199457E-1,9.825528145E0,1.365105271E0,9.922495536E0
7.385287010E-1,2.261217386E-1,9.859027863E0,1.326820135E0,9.950478034E0
7.406859280E-1,2.021935135E-1,9.872786522E0,1.288534999E0,9.958570097E0
7.428473760E-1,2.261217386E-1,9.872786522E0,1.240678549E0,9.953005979E0
7.449982650E-1,2.356930375E-1,9.901499748E0,1.240678549E0,9.981709860E0
7.471440580E-1,2.207378894E-1,9.906285286E0,1.198205948E0,9.980927356E0
7.493035940E-1,2.255235314E-1,9.891928673E0,1.169492126E0,9.963374206E0
7.514753980E-1,2.303091735E-1,9.877572060E0,1.126421213E0,9.944259493E0
7.536337020E-1,2.159522474E-1,9.839286804E0,1.102493048E0,9.903216200E0
7.557884370E-1,2.105683982E-1,9.777671814E0,1.069591761E0,9.838253488E0
7.579327750E-1,2.201396823E-1,9.725028992E0,1.036092162E0,9.782542478E0
7.601038670E-1,2.297109663E-1,9.681958199E0,1.012762189E0,9.737492949E0
7.622611840E-1,2.243271172E-1,9.648459435E0,9.792626500E-1,9.700620983E0
7.644226120E-1,2.626122832E-1,9.576674461E0,9.457631707E-1,9.626844079E0
7.665758920E-1,2.578266263E-1,9.514460564E0,9.080761671E-1,9.561173396E0
7.687342890E-1,2.667997181E-1,9.471389771E0,8.745766878E-1,9.515423830E0
7.708906520E-1,2.620140910E-1,9.428318977E0,8.362914920E-1,9.468961589E0
7.730483050E-1,2.763710022E-1,9.409774780E0,8.458628058E-1,9.451757838E0
7.752060700E-1,2.859423161E-1,9.361918449E0,8.273184299E-1,9.402751504E0
7.773615780E-1,2.859423161E-1,9.304491043E0,8.225327730E-1,9.345152580E0
7.795142880E-1,2.715853751E-1,9.256634712E0,8.273184299E-1,9.297499696E0
7.816756240E-1,2.524427772E-1,9.194420815E0,8.279166222E-1,9.235071597E0
7.838327190E-1,2.380858511E-1,9.136993408E0,8.327022791E-1,9.177947837E0
7.859828550E-1,2.327020019E-1,9.061020851E0,8.183453679E-1,9.100875685E0
7.881511190E-1,2.183450609E-1,9.017950058E0,8.045865893E-1,9.056404220E0
7.903020590E-1,1.944168359E-1,8.998807907E0,7.998009920E-1,9.036372241E0
7.924448600E-1,1.896311939E-1,8.984451294E0,8.093722463E-1,9.022827078E0
7.946227980E-1,1.896311939E-1,8.979664803E0,8.285148144E-1,9.019799153E0
7.967805340E-1,1.800599098E-1,8.989236832E0,8.045865893E-1,9.026968482E0
7.989447080E-1,1.848455518E-1,9.008378983E0,8.189435601E-1,9.047415561E0
8.010887310E-1,1.944168359E-1,9.027522087E0,8.285148144E-1,9.067545960E0
8.032269750E-1,1.944168359E-1,9.017950058E0,8.380861282E-1,9.058896705E0
8.054099380E-1,1.950150430E-1,9.013164520E0,8.668000102E-1,9.056848668E0
8.075677460E-1,1.998006850E-1,9.013164520E0,8.901300430E-1,9.059215555E0
8.097314730E-1,1.998006850E-1,9.032307625E0,9.140582681E-1,9.080638957E0
8.118766950E-1,2.141576260E-1,9.094520569E0,9.565308690E-1,9.147191873E0
8.140172590E-1,2.386840582E-1,9.141778946E0,9.708877802E-1,9.196288135E0
8.161996110E-1,2.482553422E-1,9.189635277E0,1.013360381E0,9.248671607E0
8.183551800E-1,2.434697002E-1,9.218349457E0,1.022931695E0,9.278126613E0
8.205193350E-1,2.195414752E-1,9.232706070E0,1.051645517E0,9.294999630E0
8.226614950E-1,2.009970993E-1,9.256634712E0,1.080359459E0,9.321634116E0
8.247963220E-1,1.866401732E-1,9.251849174E0,1.094716311E0,9.318259038E0
8.269845850E-1,1.914258152E-1,9.280562401E0,1.118644595E0,9.349697752E0
8.291423710E-1,1.866401732E-1,9.318847656E0,1.180259824E0,9.395146058E0
8.313078590E-1,1.920240223E-1,9.385847092E0,1.252044439E0,9.470935230E0
8.334582080E-1,1.974078715E-1,9.452845573E0,1.318445325E0,9.546389756E0
8.356148340E-1,2.069791555E-1,9.500701904E0,1.384846091E0,9.603331492E0
8.377732000E-1,1.980060786E-1,9.553344727E0,1.447059512E0,9.664345974E0
8.399293390E-1,2.075773627E-1,9.577272415E0,1.499103427E0,9.696109857E0
8.420871140E-1,1.986042857E-1,9.577272415E0,1.575673699E0,9.708055324E0
8.442399260E-1,1.794617027E-1,9.548559189E0,1.628315806E0,9.688064897E0
8.463810390E-1,1.704886109E-1,9.538987160E0,1.694716692E0,9.689861045E0
8.485467090E-1,1.657029688E-1,9.529416084E0,1.718644857E0,9.684573740E0
8.507182190E-1,1.561316848E-1,9.548559189E0,1.776072621E0,9.713588093E0
8.528790250E-1,1.471585929E-1,9.572486877E0,1.819143414E0,9.744918852E0
8.550329870E-1,1.519442350E-1,9.582057953E0,1.852044702E0,9.760583550E0
8.571765210E-1,1.519442350E-1,9.620343208E0,1.871187329E0,9.801807615E0
8.593480510E-1,1.423729509E-1,9.615557671E0,1.890329838E0,9.800641115E0
8.615041070E-1,1.232303679E-1,9.625128746E0,1.923829436E0,9.816282840E0
8.636650060E-1,1.136590764E-1,9.610772133E0,1.914258122E0,9.800216504E0
8.658191400E-1,1.190429255E-1,9.620343208E0,1.933400750E0,9.813420052E0
8.679699380E-1,1.328016520E-1,9.596415520E0,1.919043779E0,9.787316084E0
8.701031170E-1,1.280160099E-1,9.577272415E0,1.914258122E0,9.767544173E0
8.722927520E-1,1.471585929E-1,9.524630547E0,1.885544300E0,9.710588036E0
8.744488910E-1,1.232303679E-1,9.476774216E0,1.866999865E0,9.659716546E0
8.766143370E-1,1.322034448E-1,9.452845573E0,1.828714728E0,9.629016811E0
8.787593670E-1,1.417747438E-1,9.404989243E0,1.781456470E0,9.573270595E0
8.809040610E-1,1.417747438E-1,9.400203705E0,1.709671736E0,9.555464783E0
8.830794550E-1,1.316052526E-1,9.376275063E0,1.676172256E0,9.525828438E0
8.852385440E-1,1.316052526E-1,9.366703987E0,1.624128342E0,9.507379050E0
8.873987210E-1,1.262213886E-1,9.342776299E0,1.571486235E0,9.474859882E0
8.895579110E-1,1.262213886E-1,9.318847656E0,1.533799291E0,9.445072458E0
8.917304560E-1,1.214357466E-1,9.294919968E0,1.495514154E0,9.415245426E0
8.938661580E-1,1.016949639E-1,9.270991325E0,1.443470240E0,9.383241889E0
8.960235170E-1,9.690931439E-2,9.256634712E0,1.386042476E0,9.360330729E0
8.981755770E-1,1.010967568E-1,9.237491608E0,1.333400369E0,9.333778886E0
9.003390390E-1,1.106680483E-1,9.237491608E0,1.286142230E0,9.327253639E0
9.024972410E-1,1.154536903E-1,9.227920532E0,1.238285661E0,9.311347823E0
9.046538570E-1,1.387837082E-1,9.280562401E0,1.166501045E0,9.354615122E0
9.068121320E-1,1.435693651E-1,9.275776863E0,1.089930773E0,9.340695781E0
9.089681890E-1,1.573280841E-1,9.309276581E0,1.046859860E0,9.369274153E0
9.111229540E-1,1.525424421E-1,9.352347374E0,9.900303483E-1,9.405840244E0
9.132675770E-1,1.328016520E-1,9.385847092E0,9.230313301E-1,9.432059624E0
9.154282620E-1,1.519442350E-1,9.447462082E0,8.895317912E-1,9.490463300E0
9.175987640E-1,1.615155339E-1,9.466604233E0,8.321040869E-1,9.504476849E0
9.197600300E-1,1.375873089E-1,9.500103951E0,8.177471161E-1,9.536226491E0
9.219140100E-1,1.519442350E-1,9.543174744E0,7.842476368E-1,9.576550297E0
9.240614610E-1,1.226321608E-1,9.581459999E0,7.561319470E-1,9.612031517E0
9.262287080E-1,1.328016520E-1,9.614959717E0,7.555337548E-1,9.645512837E0
9.283858630E-1,1.280160099E-1,9.643673897E0,7.555337548E-1,9.674071820E0
9.305456340E-1,1.280160099E-1,9.658030510E0,7.651050687E-1,9.689134492E0
9.327030530E-1,1.423729509E-1,9.681958199E0,7.986045480E-1,9.715881527E0
9.348652140E-1,1.184447184E-1,9.729216576E0,8.225327730E-1,9.764642568E0
9.370039870E-1,1.333998591E-1,9.757930756E0,8.650053740E-1,9.797103779E0
9.391737060E-1,1.286142170E-1,9.796216011E0,9.032905698E-1,9.838613907E0
9.413291930E-1,1.435693651E-1,9.853643417E0,9.792626500E-1,9.903224530E0
9.434914030E-1,1.339980662E-1,9.891928673E0,1.012762189E0,9.944540995E0
9.456426180E-1,1.244267747E-1,9.925428391E0,1.069591761E0,9.983668529E0
9.477917180E-1,1.298106313E-1,9.944570541E0,1.122233868E0,1.000853350E1
9.499604190E-1,1.106680483E-1,9.982855797E0,1.188634634E0,1.005397979E1
9.521184380E-1,1.064806059E-1,1.002114105E1,1.236491084E0,1.009769856E1
9.542801410E-1,7.776673883E-2,1.005464077E1,1.313061476E0,1.014031455E1
9.564270940E-1,8.315058798E-2,1.005464077E1,1.374676585E0,1.014851963E1
9.585679930E-1,1.022931710E-1,1.005464077E1,1.427318692E0,1.015595902E1
9.607472630E-1,1.028913707E-1,1.004028416E1,1.488933921E0,1.015060672E1
9.629051810E-1,1.220339537E-1,1.003549862E1,1.503290772E0,1.014820220E1
9.650682780E-1,1.411765367E-1,1.000678444E1,1.536790371E0,1.012508717E1
9.672194320E-1,1.555334777E-1,9.987641335E0,1.536790371E0,1.010637891E1
9.693749800E-1,1.651047617E-1,9.958928108E0,1.508076429E0,1.007381771E1
9.715360930E-1,1.890329868E-1,9.906285286E0,1.503290772E0,1.002148216E1
9.736928200E-1,2.033899277E-1,9.882357597E0,1.474576950E0,9.993834916E0
9.758517150E-1,2.123630047E-1,9.839884758E0,1.431506157E0,9.945734763E0
9.780006820E-1,1.980060786E-1,9.806385040E0,1.408176184E0,9.908953231E0
9.801388150E-1,1.926222295E-1,9.763314247E0,1.355534077E0,9.858847856E0
9.823224490E-1,1.830509305E-1,9.725028992E0,1.289133191E0,9.811807220E0
9.844797970E-1,1.728814393E-1,9.667601585E0,1.246660590E0,9.749183096E0
9.866441040E-1,1.824527234E-1,9.653244972E0,1.203589797E0,9.729699681E0
9.887957980E-1,1.776670814E-1,9.643673897E0,1.179661512E0,9.717181335E0
9.909525470E-1,1.968096644E-1,9.658030510E0,1.136590719E0,9.726670851E0
9.931111650E-1,2.153540403E-1,9.658030510E0,1.107876897E0,9.723750404E0
9.952670500E-1,2.344966233E-1,9.667601585E0,1.093519926E0,9.732075570E0
9.974246430E-1,2.536391914E-1,9.691530228E0,1.050449133E0,9.751591376E0
9.995796020E-1,2.823530734E-1,9.725028992E0,1.016949654E0,9.782131605E0
1.001727876E0,2.919243574E-1,9.772287369E0,1.012163997E0,9.828901068E0
1.003884624E0,3.014956415E-1,9.810572624E0,9.930213690E-1,9.865309234E0
1.006056061E0,2.919243574E-1,9.834501266E0,9.930213690E-1,9.888818252E0
1.008214306E0,2.967100143E-1,9.858428955E0,9.690931439E-1,9.910388480E0
1.010373751E0,2.775674164E-1,9.882357597E0,9.595218897E-1,9.932709480E0
1.012518922E0,2.679961324E-1,9.920642853E0,9.595218897E-1,9.970539544E0
1.014648479E0,2.536391914E-1,9.954142570E0,9.643075466E-1,1.000395803E1
1.016812786E0,2.488535494E-1,1.001156998E1,9.828519225E-1,1.006277593E1
1.018970643E0,2.440679073E-1,1.006839943E1,9.876375198E-1,1.011966719E1
1.021139315E0,2.638086975E-1,1.013061333E1,1.044467092E0,1.018772953E1
1.023305442E0,2.781656384E-1,1.020718288E1,1.082154036E0,1.026815543E1
1.025460257E0,2.973082066E-1,1.025982571E1,1.106082320E0,1.032355723E1
1.027619651E0,3.074777126E-1,1.029811001E1,1.153340459E0,1.036705390E1
1.029773063E0,3.122633696E-1,1.031725311E1,1.172483087E0,1.038835583E1
1.031931286E0,3.224328458E-1,1.032682419E1,1.225125194E0,1.040423916E1
1.034085634E0,3.128615618E-1,1.034596729E1,1.239482164E0,1.042464568E1
1.036235761E0,3.559323549E-1,1.035075283E1,1.272383451E0,1.043473678E1
1.038404127E0,3.272185028E-1,1.036032391E1,1.272383451E0,1.044329177E1
1.040563439E0,3.415754437E-1,1.038425159E1,1.291526079E0,1.046983260E1
1.042721193E0,3.511467278E-1,1.038425159E1,1.301097274E0,1.047133417E1
1.044876853E0,3.655036688E-1,1.039382362E1,1.272383451E0,1.047779185E1
1.047032727E0,3.655036688E-1,1.039860916E1,1.277169108E0,1.048312102E1
1.049191073E0,3.559323549E-1,1.037468052E1,1.301097274E0,1.046200448E1
1.051347954E0,3.655036688E-1,1.035075283E1,1.267597795E0,1.043448519E1
1.053505637E0,3.750749528E-1,1.036032391E1,1.267597795E0,1.044431888E1
1.055663261E0,3.750749528E-1,1.034596729E1,1.272383451E0,1.043066058E1
1.057821678E0,3.798605800E-1,1.036510944E1,1.253240824E0,1.044750690E1
1.059978457E0,3.655036688E-1,1.036510944E1,1.258026481E0,1.044756992E1
1.062136588E0,3.846462369E-1,1.036510944E1,1.267597795E0,1.044941389E1
1.064292666E0,3.942175210E-1,1.038425159E1,1.252642632E0,1.046695764E1
1.066450442E0,4.133601189E-1,1.039860916E1,1.247856975E0,1.048136852E1
1.068607668E0,4.277170599E-1,1.040818024E1,1.257428288E0,1.049258231E1
1.070765526E0,4.372883439E-1,1.040818024E1,1.204786181E0,1.048679869E1
1.072923179E0,4.277170599E-1,1.041775131E1,1.200000525E0,1.049535543E1
1.075081525E0,4.271188378E-1,1.040339470E1,1.181456208E0,1.047897373E1
1.077238101E0,4.271188378E-1,1.040818024E1,1.176670551E0,1.048318654E1
1.079396324E0,4.271188378E-1,1.039382362E1,1.119242787E0,1.046263372E1
1.081552647E0,4.223332107E-1,1.037946606E1,1.100100160E0,1.044614289E1
1.083710197E0,4.223332107E-1,1.038903809E1,1.095314622E0,1.045515145E1
1.085867455E0,4.271188378E-1,1.036032391E1,1.076171994E0,1.042482077E1
1.088025047E0,4.169493318E-1,1.034118080E1,1.062413216E0,1.040396987E1
1.090183556E0,3.882354796E-1,1.030768204E1,1.048056364E0,1.036809809E1
1.092344007E0,3.882354796E-1,1.026939678E1,1.043270707E0,1.032955230E1
1.094497907E0,3.978067636E-1,1.024546814E1,1.033699393E0,1.030516385E1
1.096656060E0,3.882354796E-1,1.021675491E1,1.043868899E0,1.027727931E1
1.098811517E0,4.025924206E-1,1.021675491E1,1.028913736E0,1.027632352E1
1.100967502E0,4.169493318E-1,1.019282627E1,1.052842021E0,1.025553658E1
1.103117526E0,4.265206456E-1,1.017368412E1,1.024128079E0,1.023399271E1
1.105284814E0,4.169493318E-1,1.015513897E1,1.034297585E0,1.021618646E1
1.107442570E0,4.408775866E-1,1.011206818E1,1.000798106E0,1.017103204E1
1.109603326E0,4.259224236E-1,1.006421185E1,9.720842242E-1,1.012001570E1
1.111755253E0,4.115654826E-1,1.004028416E1,9.631111026E-1,1.009476474E1
1.113905796E0,4.019941986E-1,9.987641335E0,9.726824164E-1,1.004294229E1
1.116072025E0,3.972085714E-1,9.949356079E0,9.487541914E-1,1.000237949E1
1.118229557E0,3.972085714E-1,9.906285286E0,9.343972206E-1,9.958180606E0
1.120392633E0,3.876372576E-1,9.887143135E0,9.062815905E-1,9.936156618E0
1.122560876E0,3.774677813E-1,9.863214493E0,8.823533654E-1,9.909794625E0
1.124718652E0,3.870390654E-1,9.868000984E0,8.727820516E-1,9.914080450E0
1.126877161E0,3.774677813E-1,9.877572060E0,8.392825127E-1,9.920348122E0
1.129035710E0,3.870390654E-1,9.906285286E0,8.249256015E-1,9.948104827E0
1.131210261E0,3.870390654E-1,9.896714211E0,8.009973764E-1,9.936616537E0
1.133341404E0,3.918247223E-1,9.906285286E0,7.770691514E-1,9.944438207E0
1.135489608E0,3.918247223E-1,9.920642853E0,7.674978375E-1,9.957998502E0
1.137654668E0,3.864408433E-1,9.920642853E0,7.441678643E-1,9.956017123E0
1.139817601E0,3.864408433E-1,9.891928673E0,7.393822074E-1,9.927047670E0
1.141978753E0,3.720839322E-1,9.858428955E0,7.058826685E-1,9.890669252E0
1.144130202E0,3.672982752E-1,9.839286804E0,6.921239495E-1,9.870436080E0
1.146273879E0,3.768695593E-1,9.815358162E0,6.873382926E-1,9.846609591E0
1.148434880E0,3.912265003E-1,9.796216011E0,6.915257573E-1,9.828383091E0
1.150604426E0,3.720839322E-1,9.777072906E0,6.921239495E-1,9.808600136E0
1.152765517E0,3.768695593E-1,9.734601021E0,7.016952634E-1,9.767131818E0
1.154925135E0,3.672982752E-1,9.744172096E0,7.064808607E-1,9.776651424E0
1.157083094E0,3.768695593E-1,9.753743172E0,7.208378315E-1,9.787601530E0
1.159222020E0,3.672982752E-1,9.753145218E0,7.256234884E-1,9.786995408E0
1.161393957E0,3.481557071E-1,9.738788605E0,7.304090858E-1,9.772344310E0
1.163544144E0,3.577269912E-1,9.729216576E0,7.447660565E-1,9.764235774E0
1.165695145E0,3.385843933E-1,9.686744690E0,7.782655358E-1,9.723855168E0
1.167848781E0,3.481557071E-1,9.653244972E0,7.734799385E-1,9.690439727E0
1.170011470E0,3.337987661E-1,9.600603104E0,8.021938205E-1,9.639840066E0
1.172182449E0,3.146561682E-1,9.571888924E0,8.075776696E-1,9.611048214E0
1.174340072E0,3.194418252E-1,9.533603668E0,8.123632669E-1,9.573482964E0
1.176497279E0,3.290131092E-1,9.519247055E0,8.452646136E-1,9.562363013E0
1.178650335E0,3.296113312E-1,9.504889488E0,8.787640929E-1,9.551114812E0
1.180799434E0,3.152543902E-1,9.485747337E0,8.979067206E-1,9.533363748E0
1.182967870E0,3.200400174E-1,9.466604233E0,9.218349457E-1,9.516764207E0
1.185123906E0,3.104687333E-1,9.447462082E0,9.218349457E-1,9.497405450E0
1.187284338E0,3.056831062E-1,9.433703423E0,9.505487680E-1,9.486397914E0
1.189437638E0,2.913261652E-1,9.443274498E0,9.601200819E-1,9.496427473E0
1.191591314E0,2.913261652E-1,9.452247620E0,9.696913958E-1,9.506321970E0
1.193754441E0,2.817548811E-1,9.448060036E0,9.888339639E-1,9.503842216E0
1.195913255E0,3.008974493E-1,9.480961800E0,9.984052777E-1,9.538133414E0
1.198070552E0,2.775674164E-1,9.476176262E0,1.012762189E0,9.534183104E0
1.200224331E0,2.919243574E-1,9.495318413E0,1.012762189E0,9.553636943E0
1.202370876E0,2.823530734E-1,9.504889488E0,1.022333503E0,9.563880658E0
1.204541825E0,2.919243574E-1,9.480961800E0,1.007976532E0,9.538861209E0
1.206698736E0,2.775674164E-1,9.461818695E0,1.022333503E0,9.520936009E0
1.208859584E0,2.775674164E-1,9.466604233E0,1.017547846E0,9.525179420E0
1.211006120E0,2.679961324E-1,9.457631111E0,1.027119160E0,9.517015390E0
1.213141048E0,2.632105052E-1,9.448060036E0,1.022333503E0,9.506854580E0
1.215329484E0,2.679961324E-1,9.466604233E0,1.027119160E0,9.525932574E0
1.217487332E0,2.679961324E-1,9.438488960E0,1.031904817E0,9.498511638E0
1.219651333E0,2.488535494E-1,9.428917885E0,1.031904817E0,9.488479758E0
1.221797949E0,2.536391914E-1,9.424132347E0,1.051047325E0,9.485952973E0
1.223942948E0,2.392822653E-1,9.395418167E0,1.060618639E0,9.458120872E0
1.226103207E0,2.440679073E-1,9.376275063E0,1.051047325E0,9.438156794E0
1.228274370E0,2.249253243E-1,9.366703987E0,1.061216831E0,9.429311542E0
1.230436246E0,2.201396823E-1,9.342776299E0,1.061216831E0,9.405429900E0
1.232592506E0,2.195414752E-1,9.318847656E0,1.056431174E0,9.381106914E0
1.234739316E0,2.147558331E-1,9.314062119E0,1.046859860E0,9.375168734E0
1.236872840E0,2.195414752E-1,9.309276581E0,1.056431174E0,9.371599423E0
1.239060828E0,2.243271172E-1,9.323633194E0,1.051645517E0,9.385436425E0
1.241218158E0,2.440679073E-1,9.342776299E0,1.070788145E0,9.407105047E0
1.243383369E0,2.344966233E-1,9.361918449E0,1.080359459E0,9.426965698E0
1.245529497E0,2.392822653E-1,9.395418167E0,1.084546804E0,9.460834018E0
1.247672483E0,2.392822653E-1,9.400203705E0,1.089332461E0,9.466136007E0
1.249831672E0,2.344966233E-1,9.400203705E0,1.074975610E0,9.464374830E0
1.251989681E0,2.249253243E-1,9.400203705E0,1.066002488E0,9.463127517E0
1.254154070E0,2.249253243E-1,9.404989243E0,1.056431174E0,9.466808379E0
1.256316993E0,2.153540403E-1,9.409774780E0,1.051645517E0,9.470807625E0
1.258453072E0,2.153540403E-1,9.471389771E0,1.055832982E0,9.532491009E0
1.260638894E0,2.440679073E-1,9.485747337E0,1.022333503E0,9.543800998E0
1.262793119E0,2.392822653E-1,9.504889488E0,1.022333503E0,9.562705997E0
1.264958422E0,2.530409992E-1,9.509675026E0,1.007976532E0,9.566293197E0
1.267101763E0,2.338984162E-1,9.504889488E0,9.655039310E-1,9.556664193E0
1.269240568E0,2.386840582E-1,9.504889488E0,9.607182741E-1,9.556300218E0
1.271422911E0,2.291127741E-1,9.514460564E0,9.463613629E-1,9.564154553E0
1.273580329E0,2.147558331E-1,9.519247055E0,9.176474810E-1,9.565785982E0
1.275744311E0,1.908276081E-1,9.543174744E0,8.937192559E-1,9.586831253E0
1.277895170E0,1.806581169E-1,9.576674461E0,8.841479421E-1,9.619098122E0
1.280053028E0,1.854437590E-1,9.595816612E0,8.560323119E-1,9.635708441E0
1.282211667E0,1.710868180E-1,9.619745255E0,8.608179688E-1,9.659698600E0
1.284367704E0,1.806581169E-1,9.677172661E0,8.506484628E-1,9.716167499E0
1.286526223E0,1.806581169E-1,9.705288887E0,8.315058947E-1,9.742518760E0
1.288678893E0,1.998006850E-1,9.767501831E0,8.171489239E-1,9.803659760E0
1.290825875E0,1.950150430E-1,9.801001549E0,8.027920127E-1,9.835758092E0
1.292988289E0,1.950150430E-1,9.844072342E0,8.027920127E-1,9.878677348E0
1.295139168E0,1.902294010E-1,9.844072342E0,7.788637877E-1,9.876668279E0
1.297316170E0,1.950150430E-1,9.839286804E0,7.788637877E-1,9.871991921E0
1.299470224E0,1.998006850E-1,9.824930191E0,7.740781307E-1,9.857401814E0
1.301616788E0,1.710868180E-1,9.801001549E0,7.788637877E-1,9.833388575E0
1.303770699E0,1.519442350E-1,9.796216011E0,7.740781307E-1,9.827926136E0
1.305928882E0,1.567298770E-1,9.810572624E0,8.027920127E-1,9.844611444E0
1.308102833E0,1.375873089E-1,9.791430473E0,7.932206988E-1,9.824471490E0
1.310260050E0,1.519442350E-1,9.781859398E0,8.219345808E-1,9.817506648E0
1.312417286E0,1.375873089E-1,9.767501831E0,8.362914920E-1,9.804203473E0
1.314569873E0,1.471585929E-1,9.777072906E0,8.171489239E-1,9.812264908E0
1.316730548E0,1.423729509E-1,9.781859398E0,8.458628058E-1,9.819395461E0
1.318887460E0,1.429711580E-1,9.810572624E0,8.650053740E-1,9.849670566E0
1.321046305E0,1.621137410E-1,9.815358162E0,8.745766878E-1,9.855578172E0
1.323197213E0,1.477568001E-1,9.829715729E0,9.032905698E-1,9.872237701E0
1.325341430E0,1.573280841E-1,9.839286804E0,9.122636318E-1,9.882739594E0
1.327516580E0,1.716850251E-1,9.848857880E0,9.026923180E-1,9.891629325E0
1.329674509E0,1.668993831E-1,9.853643417E0,8.931210637E-1,9.895443862E0
1.331836699E0,1.908276081E-1,9.877572060E0,9.026923180E-1,9.920569459E0
1.333988158E0,1.908276081E-1,9.882357597E0,9.122636318E-1,9.926209336E0
1.336137684E0,1.812563092E-1,9.911071777E0,8.691928387E-1,9.950763479E0
1.338305409E0,1.668993831E-1,9.911071777E0,8.452646136E-1,9.948450706E0
1.340461436E0,1.621137410E-1,9.911071777E0,8.404789567E-1,9.947966100E0
1.342621601E0,1.573280841E-1,9.906285286E0,8.267202377E-1,9.941966940E0
1.344773366E0,1.519442350E-1,9.920642853E0,7.980063558E-1,9.953846282E0
1.346921712E0,1.328016520E-1,9.930213928E0,7.836494446E-1,9.961972264E0
1.349092153E0,1.375873089E-1,9.939785004E0,7.549355626E-1,9.969362261E0
1.351250142E0,1.375873089E-1,9.968499184E0,7.310073376E-1,9.996213181E0
1.353409932E0,1.519442350E-1,9.987043381E0,7.166503668E-1,1.001387589E1
1.355561869E0,1.615155339E-1,9.978070259E0,6.975077987E-1,1.000372383E1
1.357708710E0,1.471585929E-1,9.949356079E0,6.975077987E-1,9.974861361E0
1.359879100E0,1.513460279E-1,9.934999466E0,6.837490797E-1,9.959650235E0
1.362036407E0,1.561316848E-1,9.915857315E0,6.502495408E-1,9.938381551E0
1.364197683E0,1.561316848E-1,9.887143135E0,6.598208547E-1,9.910365283E0
1.366357675E0,1.465603858E-1,9.872786522E0,6.789634228E-1,9.897190762E0
1.368534027E0,1.465603858E-1,9.868000984E0,6.502495408E-1,9.890487745E0
1.370665914E0,1.513460279E-1,9.891928673E0,6.789634228E-1,9.916357689E0
1.372825124E0,1.519442350E-1,9.906285286E0,6.933203340E-1,9.931680034E0
1.374974924E0,1.615155339E-1,9.939785004E0,7.118647099E-1,9.966552290E0
1.377141368E0,1.710868180E-1,9.954142570E0,7.070791125E-1,9.980690652E0
1.379302409E0,1.806581169E-1,9.954142570E0,7.214360237E-1,9.981886676E0
1.381440472E0,1.663011760E-1,9.996614456E0,7.214360237E-1,1.002399255E1
1.383611349E0,1.758724600E-1,9.968499184E0,7.501499057E-1,9.998231442E0
1.385767182E0,1.615155339E-1,9.944570541E0,7.740781307E-1,9.975959476E0
1.387929536E0,1.710868180E-1,9.939785004E0,7.788637877E-1,9.971721287E0
1.390080405E0,1.806581169E-1,9.920642853E0,8.069794178E-1,9.955049359E0
1.392224213E0,1.764706671E-1,9.911071777E0,8.309076428E-1,9.947406355E0
1.394398408E0,1.812563092E-1,9.901499748E0,8.644071817E-1,9.940812386E0
1.396555614E0,1.716850251E-1,9.887143135E0,8.835497499E-1,9.928027764E0
1.398717469E0,1.956132501E-1,9.872786522E0,8.883354068E-1,9.914601255E0
1.400864584E0,2.051845491E-1,9.872786522E0,9.361918569E-1,9.919197024E0
1.403003174E0,2.003988922E-1,9.858428955E0,9.457631707E-1,9.905718003E0
1.405185975E0,2.099701911E-1,9.872786522E0,9.451649189E-1,9.920148079E0
1.407344219E0,2.057827413E-1,9.882357597E0,9.643075466E-1,9.931426245E0
1.409506908E0,2.392822653E-1,9.896714211E0,9.882357717E-1,9.948809884E0
1.411661214E0,2.297109663E-1,9.920642853E0,9.738788009E-1,9.970975963E0
1.413827403E0,2.297109663E-1,9.911071777E0,9.978070259E-1,9.963821042E0
1.415973370E0,2.344966233E-1,9.915857315E0,9.930213690E-1,9.968214805E0
1.418127687E0,2.297109663E-1,9.915857315E0,9.882357717E-1,9.967627770E0
1.420273052E0,2.249253243E-1,9.891928673E0,9.930213690E-1,9.944191053E0
1.422447429E0,2.153540403E-1,9.891928673E0,9.690931439E-1,9.941618166E0
1.424610343E0,2.153540403E-1,9.896714211E0,9.643075466E-1,9.945914667E0
1.426763684E0,2.297109663E-1,9.915857315E0,9.643075466E-1,9.965283863E0
1.428917889E0,2.536391914E-1,9.930213928E0,9.403793216E-1,9.977865241E0
1.431073478E0,2.775674164E-1,9.963713646E0,9.397810698E-1,1.001178414E1
1.433232708E0,3.062812984E-1,9.978070259E0,9.110672474E-1,1.002425747E1
1.435390819E0,3.254238665E-1,9.968499184E0,9.110672474E-1,1.001533425E1
1.437550295E0,3.200400174E-1,9.934999466E0,9.014959335E-1,9.980948598E0
1.439705263E0,3.248256743E-1,9.887143135E0,8.877372146E-1,9.932229783E0
1.441863740E0,3.248256743E-1,9.844072342E0,8.733802438E-1,9.888076913E0
1.444019523E0,3.152543902E-1,9.791430473E0,8.494520187E-1,9.833263180E0
1.446173281E0,3.008974493E-1,9.757930756E0,8.452646136E-1,9.799093028E0
1.448314974E0,3.008974493E-1,9.738788605E0,8.452646136E-1,9.780031443E0
1.450479515E0,2.715853751E-1,9.714859962E0,8.021938205E-1,9.751706396E0
1.452650464E0,2.667997181E-1,9.710074425E0,7.884350419E-1,9.745684031E0
1.454812614E0,2.715853751E-1,9.701101303E0,7.788637877E-1,9.736105685E0
1.456965141E0,2.620140910E-1,9.686744690E0,7.788637877E-1,9.721538092E0
1.459110344E0,2.524427772E-1,9.691530228E0,7.501499057E-1,9.723796090E0
1.461279716E0,2.763710022E-1,9.705288887E0,7.453642488E-1,9.737791391E0
1.463437390E0,2.620140910E-1,9.705288887E0,7.310073376E-1,9.736306050E0
1.465597780E0,2.763710022E-1,9.743574142E0,7.310073376E-1,9.774865203E0
1.467751417E0,2.859423161E-1,9.767501831E0,7.022934556E-1,9.796890891E0
1.469906732E0,3.002992272E-1,9.777072906E0,6.975077987E-1,9.806520860E0
1.472068158E0,2.907279432E-1,9.791430473E0,6.879364848E-1,9.819872202E0
1.474224876E0,2.949153781E-1,9.820143700E0,6.687939167E-1,9.847308397E0
1.476383944E0,3.044866920E-1,9.834501266E0,6.640082598E-1,9.861593901E0
1.478535820E0,2.949153781E-1,9.834501266E0,6.496513486E-1,9.860346704E0
1.480683089E0,3.092723191E-1,9.848857880E0,6.305087805E-1,9.873864098E0
1.482854281E0,3.092723191E-1,9.868000984E0,6.065805554E-1,9.891462620E0
1.485011996E0,2.949153781E-1,9.868000984E0,6.161518097E-1,9.891615720E0
1.487173272E0,2.901297510E-1,9.848857880E0,5.874379873E-1,9.870626130E0
1.489324873E0,2.901297510E-1,9.848857880E0,5.922235847E-1,9.870912095E0
1.491472405E0,2.853440940E-1,9.839286804E0,5.826523304E-1,9.860652605E0
1.493642723E0,2.853440940E-1,9.820143700E0,5.635097623E-1,9.840436311E0
1.495799045E0,2.805584669E-1,9.805787086E0,5.826523304E-1,9.827087930E0
1.497959863E0,2.853440940E-1,9.791430473E0,5.736792088E-1,9.812371772E0
1.500106113E0,2.895315289E-1,9.767501831E0,5.449653864E-1,9.786976438E0
1.502240543E0,3.086741269E-1,9.767501831E0,5.353940725E-1,9.787033184E0
1.504429874E0,2.943171859E-1,9.743574142E0,5.449653864E-1,9.763239572E0
1.506588748E0,3.038884699E-1,9.743574142E0,5.497509837E-1,9.763801074E0
1.508752232E0,3.278166950E-1,9.686145782E0,5.306084156E-1,9.706205705E0
1.510903263E0,3.182454109E-1,9.667003632E0,5.306084156E-1,9.686784020E0
1.513061140E0,3.182454109E-1,9.629316330E0,5.401797295E-1,9.649705035E0
1.515211094E0,3.421736360E-1,9.619745255E0,5.306084156E-1,9.640442254E0
1.517347629E0,3.278166950E-1,9.595816612E0,5.401797295E-1,9.616597859E0
1.519515172E0,3.421736360E-1,9.605388641E0,5.353940725E-1,9.626381488E0
1.521672824E0,3.469592929E-1,9.581459999E0,5.401797295E-1,9.602944892E0
1.523836826E0,3.469592929E-1,9.586245537E0,5.497509837E-1,9.608262610E0
1.525990818E0,3.517449200E-1,9.591031075E0,5.593222976E-1,9.613763207E0
1.528149215E0,3.571287692E-1,9.591031075E0,5.922235847E-1,9.615931926E0
1.530305425E0,3.667000830E-1,9.595816612E0,6.113662124E-1,9.622262419E0
1.532463556E0,3.619144261E-1,9.629316330E0,5.874379873E-1,9.654004269E0
1.534620386E0,3.571287692E-1,9.638887405E0,6.017948985E-1,9.664256230E0
1.536778233E0,3.475574851E-1,9.634101868E0,6.113662124E-1,9.659735175E0
1.538935745E0,3.379862010E-1,9.643673897E0,6.305087805E-1,9.670171778E0
1.541094182E0,3.523431420E-1,9.672387123E0,6.448656917E-1,9.700261342E0
1.543250747E0,3.332005441E-1,9.696315765E0,6.544370055E-1,9.724086066E0
1.545408940E0,3.140579760E-1,9.724431038E0,6.783652306E-1,9.753121080E0
1.547565323E0,3.140579760E-1,9.734002113E0,6.735795736E-1,9.762332662E0
1.549723068E0,3.140579760E-1,9.767501831E0,6.735795736E-1,9.795735494E0
1.551880141E0,3.290131092E-1,9.801001549E0,7.016952634E-1,9.831594847E0
1.554037775E0,3.146561682E-1,9.834501266E0,7.064808607E-1,9.864863855E0
1.556192977E0,3.146561682E-1,9.829715729E0,7.399803996E-1,9.862549914E0
1.558343745E0,3.098705411E-1,9.824930191E0,7.447660565E-1,9.857989120E0
1.560509567E0,3.050848842E-1,9.805787086E0,7.639086246E-1,9.840228329E0
1.562664555E0,3.002992272E-1,9.829715729E0,7.926225066E-1,9.866191837E0
1.564827366E0,3.002992272E-1,9.805787086E0,7.974081635E-1,9.842738429E0
1.566983810E0,3.104687333E-1,9.805787086E0,8.069794178E-1,9.843833958E0
1.569146012E0,3.008974493E-1,9.815358162E0,8.069794178E-1,9.853071141E0
1.571297511E0,3.248256743E-1,9.834501266E0,8.111668825E-1,9.873242557E0
1.573455419E0,3.152543902E-1,9.848857880E0,8.207381964E-1,9.888022960E0
1.575613255E0,3.343969584E-1,9.853643417E0,8.207381964E-1,9.893418070E0
1.577767664E0,3.391826153E-1,9.848857880E0,8.159525394E-1,9.888418727E0
1.579918442E0,3.391826153E-1,9.839286804E0,8.063812256E-1,9.878100037E0
1.582084264E0,3.337987661E-1,9.810572624E0,7.968099117E-1,9.848536077E0
1.584242244E0,3.242274821E-1,9.801001549E0,7.782655358E-1,9.837197368E0
1.586402034E0,3.194418252E-1,9.796216011E0,7.878368497E-1,9.833035041E0
1.588556178E0,3.098705411E-1,9.772287369E0,7.734799385E-1,9.807746499E0
1.590710628E0,3.050848842E-1,9.772287369E0,7.447660565E-1,9.805373715E0
1.592873276E0,2.955136001E-1,9.777072906E0,7.351947427E-1,9.809128107E0
1.595029974E0,3.050848842E-1,9.791430473E0,7.351947427E-1,9.823731410E0
1.597189255E0,3.002992272E-1,9.748359680E0,7.447660565E-1,9.781378868E0
1.599344305E0,2.859423161E-1,9.748359680E0,7.262216806E-1,9.779554049E0
1.601502020E0,2.667997181E-1,9.757930756E0,7.405785918E-1,9.789629787E0
1.603659216E0,2.572284341E-1,9.738788605E0,7.214360237E-1,9.768860726E0
1.605816992E0,2.524427772E-1,9.719645500E0,7.118647099E-1,9.748948014E0
1.607974727E0,2.333002090E-1,9.719645500E0,7.357929349E-1,9.750247632E0
1.610133002E0,2.572284341E-1,9.705886841E0,7.453642488E-1,9.737862892E0
1.612289709E0,2.572284341E-1,9.701101303E0,7.501499057E-1,9.733460733E0
1.614448197E0,2.620140910E-1,9.710672379E0,7.836494446E-1,9.745763997E0
1.616607662E0,2.620140910E-1,9.705886841E0,7.692924738E-1,9.739851213E0
1.618777736E0,2.620140910E-1,9.720243454E0,7.836494446E-1,9.755300643E0
1.620935167E0,2.811566591E-1,9.710672379E0,7.974081635E-1,9.747413344E0
1.623089768E0,2.715853751E-1,9.734002113E0,8.021938205E-1,9.770776360E0
1.625234483E0,2.715853751E-1,9.734002113E0,7.926225066E-1,9.769995199E0
1.627403317E0,2.763710022E-1,9.734002113E0,7.830511928E-1,9.769357566E0
1.629551968E0,2.715853751E-1,9.748359680E0,7.830511928E-1,9.783529232E0
1.631723995E0,2.620140910E-1,9.738788605E0,7.405785918E-1,9.770420233E0
1.633871466E0,2.667997181E-1,9.734002113E0,7.166503668E-1,9.763993393E0
1.636015927E0,2.476571500E-1,9.714859962E0,7.310073376E-1,9.745471250E0
1.638191891E0,2.518445849E-1,9.724431038E0,6.879364848E-1,9.751986532E0
1.640349393E0,2.422732860E-1,9.724431038E0,6.831508875E-1,9.751407616E0
1.642512865E0,2.470589429E-1,9.714859962E0,6.879364848E-1,9.742319992E0
1.644663286E0,2.327020019E-1,9.729216576E0,6.598208547E-1,9.754341031E0
1.646810513E0,2.374876440E-1,9.743574142E0,6.550351977E-1,9.768454768E0
1.648985389E0,2.374876440E-1,9.748359680E0,6.358926296E-1,9.771963788E0
1.651136289E0,2.327020019E-1,9.767501831E0,6.358926296E-1,9.790944882E0
1.653297584E0,2.422732860E-1,9.777072906E0,6.358926296E-1,9.800724994E0
1.655449337E0,2.470589429E-1,9.781859398E0,6.448656917E-1,9.806205340E0
1.657605221E0,2.374876440E-1,9.781859398E0,6.167500615E-1,9.804160051E0
1.659767352E0,2.422732860E-1,9.781859398E0,6.071787477E-1,9.803679700E0
1.661925157E0,2.231307179E-1,9.777072906E0,6.119644046E-1,9.798746980E0
1.664082934E0,2.183450609E-1,9.781859398E0,6.263213158E-1,9.804321814E0
1.666240008E0,2.231307179E-1,9.810572624E0,6.215356588E-1,9.832773215E0
1.668393166E0,2.135594189E-1,9.791430473E0,6.358926296E-1,9.814381171E0
1.670542377E0,2.231307179E-1,9.786644936E0,6.406782866E-1,9.810131247E0
1.672708676E0,2.039881349E-1,9.796216011E0,6.693921089E-1,9.821178396E0
1.674858732E0,2.039881349E-1,9.781859398E0,6.837490797E-1,9.807848757E0
1.677029702E0,1.896311939E-1,9.786644936E0,7.028916478E-1,9.813686145E0
1.679179664E0,1.902294010E-1,9.772287369E0,7.220342159E-1,9.800771452E0
1.681322731E0,1.950150430E-1,9.786644936E0,7.549355626E-1,9.817656424E0
1.683499773E0,1.854437590E-1,9.810572624E0,8.027920127E-1,9.845110442E0
1.685656115E0,2.045863420E-1,9.820143700E0,8.267202377E-1,9.857004829E0
1.687819182E0,2.195414752E-1,9.834501266E0,8.356932998E-1,9.872385573E0
1.689970732E0,2.243271172E-1,9.858428955E0,8.644071817E-1,9.898795073E0
1.692127551E0,2.338984162E-1,9.868000984E0,8.979067206E-1,9.911528054E0
1.694286395E0,2.482553422E-1,9.872786522E0,8.973084688E-1,9.916587463E0
1.696444680E0,2.626122832E-1,9.863214493E0,9.116654396E-1,9.908738528E0
1.698601774E0,2.578266263E-1,9.858428955E0,9.260223508E-1,9.905181140E0
1.700758330E0,2.434697002E-1,9.824930191E0,9.170492887E-1,9.870638791E0
1.702908974E0,2.338984162E-1,9.805787086E0,9.218349457E-1,9.851799253E0
1.705073494E0,2.099701911E-1,9.791430473E0,9.266205430E-1,9.837419572E0
1.707230630E0,2.099701911E-1,9.772287369E0,9.170492887E-1,9.817467458E0
1.709390226E0,2.051845491E-1,9.762716293E0,9.170492887E-1,9.807839187E0
1.711552509E0,2.051845491E-1,9.748957634E0,9.170492887E-1,9.794143916E0
1.713724495E0,1.812563092E-1,9.753743172E0,9.074779749E-1,9.797544385E0
1.715840127E0,1.956132501E-1,9.734601021E0,9.026923180E-1,9.778321686E0
1.718019611E0,1.956132501E-1,9.729815483E0,8.835497499E-1,9.771808125E0
1.720169108E0,2.051845491E-1,9.729815483E0,8.787640929E-1,9.771572871E0
1.722340148E0,2.099701911E-1,9.715457916E0,8.458628058E-1,9.754470457E0
1.724497272E0,2.051845491E-1,9.710672379E0,8.458628058E-1,9.749602178E0
1.726648456E0,2.141576260E-1,9.686744690E0,8.267202377E-1,9.724317587E0
1.728805876E0,1.998006850E-1,9.648459435E0,7.980063558E-1,9.683465491E0
1.730962442E0,2.045863420E-1,9.653244972E0,7.980063558E-1,9.688333614E0
1.733112680E0,1.806581169E-1,9.643673897E0,7.746763229E-1,9.676425321E0
1.735247476E0,1.902294010E-1,9.653244972E0,7.603194118E-1,9.685009619E0
1.737436929E0,1.902294010E-1,9.648459435E0,7.651050687E-1,9.680616842E0
1.739593027E0,1.806581169E-1,9.653244972E0,7.411768436E-1,9.683342345E0
1.741758259E0,1.758724600E-1,9.658030510E0,7.363911867E-1,9.687660008E0
1.743904296E0,1.896311939E-1,9.643673897E0,6.981059909E-1,9.670768232E0
1.746048563E0,1.848455518E-1,9.634101868E0,7.124629617E-1,9.662178333E0
1.748207122E0,2.039881349E-1,9.624530792E0,7.172485590E-1,9.653375038E0
1.750380758E0,2.039881349E-1,9.619745255E0,6.981059909E-1,9.647199692E0
1.752542011E0,1.896311939E-1,9.638887405E0,6.981059909E-1,9.665995157E0
1.754699198E0,2.135594189E-1,9.658030510E0,6.741777658E-1,9.683887474E0
1.756852905E0,2.135594189E-1,9.672387123E0,6.885347366E-1,9.699214420E0
1.759010722E0,2.279163599E-1,9.686744690E0,7.022934556E-1,9.714843522E0
1.761167694E0,2.327020019E-1,9.705886841E0,6.789634228E-1,9.732388243E0
1.763325337E0,2.279163599E-1,9.715457916E0,6.789634228E-1,9.741820144E0
1.765483408E0,2.470589429E-1,9.734002113E0,6.687939167E-1,9.760077898E0
1.767642141E0,2.524427772E-1,9.753145218E0,6.927221417E-1,9.780973007E0
1.769806162E0,2.620140910E-1,9.762716293E0,6.927221417E-1,9.790768344E0
1.771954660E0,2.662015259E-1,9.772287369E0,6.783652306E-1,9.799420547E0
1.774112426E0,2.709871531E-1,9.757930756E0,6.831508875E-1,9.785568037E0
1.776267782E0,2.572284341E-1,9.757930756E0,7.166503668E-1,9.787592495E0
1.778423625E0,2.476571500E-1,9.725028992E0,7.405785918E-1,9.756330232E0
1.780570456E0,2.237289101E-1,9.700503349E0,7.501499057E-1,9.732037029E0
1.782744506E0,2.333002090E-1,9.681360245E0,7.501499057E-1,9.713181253E0
1.784900503E0,2.380858511E-1,9.686145782E0,7.740781307E-1,9.719943515E0
1.787061962E0,2.428714931E-1,9.710074425E0,7.884350419E-1,9.745058323E0
1.789213766E0,2.572284341E-1,9.743574142E0,8.213363886E-1,9.781513022E0
1.791370555E0,2.620140910E-1,9.762716293E0,8.309076428E-1,9.801514593E0
1.793529266E0,2.817548811E-1,9.801001549E0,8.213363886E-1,9.839390765E0
1.795687134E0,2.769692242E-1,9.810572624E0,8.309076428E-1,9.849591599E0
1.797845653E0,2.907279432E-1,9.805787086E0,8.165507317E-1,9.844020430E0
1.800001557E0,2.763710022E-1,9.786644936E0,8.021938205E-1,9.823355585E0
1.802143911E0,2.769692242E-1,9.786644936E0,8.261220455E-1,9.825355397E0
1.804305308E0,2.763710022E-1,9.762716293E0,8.021938205E-1,9.799516584E0
1.806473806E0,2.715853751E-1,9.753145218E0,7.878368497E-1,9.788681584E0
1.808635112E0,2.524427772E-1,9.753145218E0,7.932206988E-1,9.788603990E0
1.810789115E0,2.620140910E-1,9.757930756E0,7.884350419E-1,9.793237148E0
1.812930736E0,2.476571500E-1,9.762716293E0,7.692924738E-1,9.796110167E0
1.815091411E0,2.620140910E-1,9.781859398E0,7.692924738E-1,9.815560889E0
1.817262615E0,2.572284341E-1,9.796216011E0,7.501499057E-1,9.828262282E0
1.819422691E0,2.715853751E-1,9.805787086E0,7.591229677E-1,9.838876292E0
1.821581077E0,2.907279432E-1,9.834501266E0,7.495517135E-1,9.867307924E0
1.823726716E0,3.050848842E-1,9.848857880E0,7.351947427E-1,9.880971087E0
1.825862926E0,2.859423161E-1,9.863214493E0,7.208378315E-1,9.893653032E0
1.828048779E0,3.002992272E-1,9.858428955E0,7.160521746E-1,9.888960097E0
1.830206606E0,2.955136001E-1,9.872786522E0,7.112665176E-1,9.902784561E0
1.832371451E0,3.002992272E-1,9.863214493E0,7.064808607E-1,9.893042756E0
1.834519716E0,2.907279432E-1,9.872786522E0,7.208378315E-1,9.903334975E0
1.836667452E0,2.763710022E-1,9.863214493E0,7.208378315E-1,9.893381032E0
1.838837404E0,2.811566591E-1,9.863214493E0,7.208378315E-1,9.893515875E0
1.840993522E0,2.763710022E-1,9.848857880E0,6.975077987E-1,9.877393360E0
1.843154359E0,2.715853751E-1,9.858428955E0,7.118647099E-1,9.887827438E0
1.845300580E0,2.715853751E-1,9.887143135E0,7.022934556E-1,9.915774003E0
1.847426109E0,2.715853751E-1,9.906285286E0,7.160521746E-1,9.935843069E0
1.849575340E0,2.859423161E-1,9.920642853E0,7.112665176E-1,9.950216966E0
1.851724570E0,2.811566591E-1,9.925428391E0,7.256234884E-1,9.955888069E0
1.853907991E0,2.859423161E-1,9.930213928E0,7.351947427E-1,9.961497025E0
1.856096651E0,2.667997181E-1,9.920642853E0,7.208378315E-1,9.950374057E0
1.858252342E0,2.620140910E-1,9.911071777E0,7.256234884E-1,9.941052490E0
1.860418745E0,2.667997181E-1,9.911071777E0,7.208378315E-1,9.940831607E0
1.862568361E0,2.476571500E-1,9.911071777E0,7.064808607E-1,9.939305461E0
1.864726442E0,2.476571500E-1,9.896714211E0,6.975077987E-1,9.924354052E0
1.866880567E0,2.524427772E-1,9.887143135E0,7.112665176E-1,9.915907764E0
1.869029503E0,2.476571500E-1,9.887143135E0,7.118647099E-1,9.915830011E0
1.871198865E0,2.476571500E-1,9.882357597E0,6.975077987E-1,9.910037481E0
1.873356691E0,2.333002090E-1,9.896714211E0,6.879364848E-1,9.923338035E0
1.875516115E0,2.279163599E-1,9.891928673E0,6.640082598E-1,9.916809250E0
1.877671186E0,2.237289101E-1,9.887143135E0,6.927221417E-1,9.913905283E0
1.879830020E0,2.327020019E-1,9.891928673E0,6.448656917E-1,9.915657056E0
1.881986168E0,2.374876440E-1,9.896714211E0,6.544370055E-1,9.921171319E0
1.884143638E0,2.279163599E-1,9.872786522E0,6.352944374E-1,9.895830364E0
1.886301273E0,2.135594189E-1,9.872786522E0,6.352944374E-1,9.895510111E0
1.888458296E0,2.039881349E-1,9.839286804E0,6.311069727E-1,9.861616094E0
1.890613406E0,2.039881349E-1,9.820143700E0,6.263213158E-1,9.842210719E0
1.892760347E0,2.039881349E-1,9.796216011E0,6.215356588E-1,9.818032688E0
1.894930432E0,1.992024779E-1,9.767501831E0,6.215356588E-1,9.789283948E0
1.897087762E0,2.087737769E-1,9.767501831E0,6.071787477E-1,9.788582356E0
1.899248599E0,1.992024779E-1,9.753145218E0,6.119644046E-1,9.774355411E0
1.901397933E0,2.039881349E-1,9.772287369E0,6.071787477E-1,9.793256742E0
1.903540480E0,2.135594189E-1,9.753145218E0,6.071787477E-1,9.774360097E0
1.905718183E0,1.944168359E-1,9.743574142E0,5.928218365E-1,9.763527677E0
1.907876458E0,2.087737769E-1,9.734002113E0,6.071787477E-1,9.755155030E0
1.910037795E0,2.135594189E-1,9.738788605E0,5.928218365E-1,9.759152056E0
1.912190006E0,2.129612118E-1,9.734002113E0,5.688936114E-1,9.752937484E0
1.914346510E0,2.129612118E-1,9.714859962E0,5.503492355E-1,9.732766351E0
1.916505070E0,2.081755698E-1,9.700503349E0,5.599204898E-1,9.718879218E0
1.918663222E0,1.842473447E-1,9.700503349E0,5.312066078E-1,9.716784076E0
1.920822432E0,2.033899277E-1,9.681360245E0,5.359922647E-1,9.698318997E0
1.922974542E0,1.986042857E-1,9.686145782E0,5.072783828E-1,9.701453249E0
1.925121687E0,1.938186288E-1,9.676574707E0,5.072783828E-1,9.691800404E0
1.927288100E0,1.938186288E-1,9.676574707E0,4.929214716E-1,9.691059555E0
1.929450434E0,1.890329868E-1,9.667003632E0,4.977070987E-1,9.681653012E0
1.931610589E0,2.129612118E-1,9.681360245E0,4.977070987E-1,9.696483952E0
1.933759841E0,1.938186288E-1,9.667003632E0,4.839483798E-1,9.681050093E0
1.935898604E0,1.938186288E-1,9.710074425E0,4.785645306E-1,9.723792213E0
1.938081029E0,2.081755698E-1,9.729216576E0,4.737788737E-1,9.742969705E0
1.940237645E0,1.986042857E-1,9.753145218E0,4.737788737E-1,9.766665333E0
1.942401798E0,2.177468538E-1,9.762716293E0,4.977070987E-1,9.777819566E0
1.944548791E0,1.842473447E-1,9.772287369E0,4.977070987E-1,9.786687890E0
1.946693984E0,2.033899277E-1,9.772287369E0,5.120640397E-1,9.787807592E0
1.948854222E0,1.938186288E-1,9.791430473E0,5.168496966E-1,9.806977617E0
1.951024694E0,1.938186288E-1,9.801001549E0,5.168496966E-1,9.816533534E0
1.953186222E0,1.890329868E-1,9.796216011E0,5.551348329E-1,9.813753425E0
1.955337050E0,1.842473447E-1,9.805787086E0,5.688936114E-1,9.824003635E0
1.957466761E0,1.896311939E-1,9.815358162E0,5.928218365E-1,9.835072626E0
1.959642420E0,1.944168359E-1,9.810572624E0,6.119644046E-1,9.831563129E0
1.961811680E0,1.992024779E-1,9.810572624E0,6.119644046E-1,9.831658928E0
1.963976354E0,2.039881349E-1,9.820143700E0,6.311069727E-1,9.842516419E0
1.966126826E0,2.039881349E-1,9.815358162E0,6.502495408E-1,9.838988336E0
1.968268681E0,2.135594189E-1,9.834501266E0,6.550351977E-1,9.858605068E0
1.970429285E0,2.039881349E-1,9.858428955E0,6.831508875E-1,9.884175624E0
1.972600255E0,2.135594189E-1,9.863214493E0,6.879364848E-1,9.889482512E0
1.974760136E0,2.045863420E-1,9.844072342E0,7.118647099E-1,9.871897852E0
1.976918513E0,2.141576260E-1,9.844072342E0,7.070791125E-1,9.871756917E0
1.979070521E0,2.141576260E-1,9.834501266E0,7.214360237E-1,9.863252434E0
1.981225866E0,1.998006850E-1,9.820143700E0,7.262216806E-1,9.848986777E0
1.983386408E0,1.950150430E-1,9.824930191E0,7.262216806E-1,9.853663382E0
1.985544235E0,1.998006850E-1,9.868000984E0,7.262216806E-1,9.896704586E0
1.987702927E0,2.189432681E-1,9.911071777E0,7.549355626E-1,9.942193301E0
1.989857936E0,2.141576260E-1,9.920642853E0,7.357929349E-1,9.950196448E0
1.992003789E0,2.285145670E-1,9.939785004E0,7.166503668E-1,9.968206086E0
1.994175145E0,2.189432681E-1,9.939785004E0,7.310073376E-1,9.969033745E0
1.996330877E0,2.380858511E-1,9.939785004E0,7.208378315E-1,9.968732014E0
1.998492193E0,2.285145670E-1,9.949356079E0,7.208378315E-1,9.978051537E0
2.000647568E0,2.285145670E-1,9.939785004E0,7.351947427E-1,9.969556466E0
2.002809922E0,2.285145670E-1,9.944570541E0,7.399803996E-1,9.974681607E0
2.004961543E0,2.380858511E-1,9.934999466E0,7.351947427E-1,9.965009311E0
2.007119859E0,2.285145670E-1,9.930213928E0,7.495517135E-1,9.961084044E0
2.009274949E0,2.285145670E-1,9.920642853E0,7.447660565E-1,9.951183347E0
2.011432207E0,2.189432681E-1,9.901499748E0,7.549355626E-1,9.932651264E0
2.013575190E0,2.141576260E-1,9.911071777E0,7.639086246E-1,9.942774444E0
2.015719559E0,2.189432681E-1,9.911071777E0,7.686942816E-1,9.943247499E0
2.017876888E0,2.237289101E-1,9.920642853E0,7.830511928E-1,9.954013181E0
2.020037299E0,2.141576260E-1,9.915857315E0,7.878368497E-1,9.949410871E0
2.022198350E0,1.998006850E-1,9.891928673E0,8.069794178E-1,9.926801547E0
2.024359249E0,2.045863420E-1,9.839286804E0,8.123632669E-1,9.874885035E0
2.026525611E0,1.812563092E-1,9.824930191E0,8.362914920E-1,9.862124039E0
2.028683824E0,1.668993831E-1,9.805787086E0,8.506484628E-1,9.844029591E0
2.030839952E0,1.668993831E-1,9.796216011E0,8.650053740E-1,9.835747955E0
2.032995194E0,1.764706671E-1,9.801001549E0,8.793623447E-1,9.841953637E0
2.035152523E0,2.003988922E-1,9.791430473E0,9.170492887E-1,9.836322983E0
2.037310716E0,2.147558331E-1,9.805787086E0,9.122636318E-1,9.850472343E0
2.039468034E0,2.291127741E-1,9.796216011E0,9.122636318E-1,9.841268502E0
2.041626247E0,2.338984162E-1,9.786644936E0,9.170492887E-1,9.832299170E0
2.043782863E0,2.434697002E-1,9.767501831E0,9.553344250E-1,9.817129590E0
2.045941260E0,2.440679073E-1,9.744172096E0,9.696913958E-1,9.795343812E0
2.048097490E0,2.434697002E-1,9.705886841E0,9.649057388E-1,9.756769955E0
2.050254971E0,2.392822653E-1,9.696315765E0,9.792626500E-1,9.748576858E0
2.052411211E0,2.338984162E-1,9.686744690E0,9.649057388E-1,9.737493222E0
2.054565884E0,2.195414752E-1,9.672387123E0,9.696913958E-1,9.723351918E0
2.056727953E0,2.249253243E-1,9.691530228E0,1.007976532E0,9.746402734E0
2.058887061E0,2.344966233E-1,9.715457916E0,9.840483069E-1,9.767981483E0
2.061043597E0,2.249253243E-1,9.725028992E0,9.936196208E-1,9.778244231E0
2.063200812E0,2.392822653E-1,9.725028992E0,9.882357717E-1,9.778039417E0
2.065356646E0,2.249253243E-1,9.753743172E0,9.978070259E-1,9.807227749E0
2.067514747E0,2.201396823E-1,9.767501831E0,9.744769931E-1,9.818460109E0
2.069672096E0,2.195414752E-1,9.762716293E0,9.601200819E-1,9.812270810E0
2.071829698E0,2.153540403E-1,9.781859398E0,9.696913958E-1,9.832164159E0
2.073987342E0,2.291127741E-1,9.824930191E0,9.451649189E-1,9.872947009E0
2.076145586E0,2.291127741E-1,9.858428955E0,9.308080077E-1,9.904923911E0
2.078302722E0,2.626122832E-1,9.887143135E0,9.068797827E-1,9.932119387E0
2.080462003E0,2.578266263E-1,9.915857315E0,8.829515576E-1,9.958428808E0
2.082616635E0,2.578266263E-1,9.939785004E0,8.494520187E-1,9.979347134E0
2.084774452E0,2.721835673E-1,9.939785004E0,8.446664214E-1,9.979322180E0
2.086931242E0,2.673979402E-1,9.949356079E0,8.063812256E-1,9.985561513E0
2.089084806E0,2.715853751E-1,9.920642853E0,7.686942816E-1,9.954084796E0
2.091228727E0,2.572284341E-1,9.939785004E0,7.304090858E-1,9.969904203E0
2.093405444E0,2.572284341E-1,9.930213928E0,6.921239495E-1,9.957627764E0
2.095562081E0,2.667997181E-1,9.954142570E0,6.873382926E-1,9.981411239E0
2.097724831E0,2.715853751E-1,9.954142570E0,6.729813814E-1,9.980561952E0
2.099873848E0,2.709871531E-1,9.934999466E0,6.400800347E-1,9.959284657E0
2.102023902E0,2.518445849E-1,9.930213928E0,6.161518097E-1,9.952498049E0
2.104191424E0,2.709871531E-1,9.944570541E0,5.922235847E-1,9.965874074E0
2.106349088E0,2.518445849E-1,9.911071777E0,5.922235847E-1,9.931943327E0
2.108506733E0,2.662015259E-1,9.920642853E0,5.778666735E-1,9.941023476E0
2.110653512E0,2.662015259E-1,9.901499748E0,5.443671346E-1,9.920025005E0
2.112816974E0,2.662015259E-1,9.882357597E0,5.539384484E-1,9.901449527E0
2.114980161E0,2.757728100E-1,9.872786522E0,5.635097623E-1,9.892699713E0
2.117138650E0,2.709871531E-1,9.853643417E0,5.497509837E-1,9.872687009E0
2.119295124E0,2.853440940E-1,9.829715729E0,5.491527915E-1,9.849177699E0
2.121454619E0,2.949153781E-1,9.824930191E0,5.539384484E-1,9.844951810E0
2.123623269E0,2.805584669E-1,9.801001549E0,5.641079545E-1,9.821230177E0
2.125775358E0,2.805584669E-1,9.786644936E0,5.641079545E-1,9.806903178E0
2.127942158E0,2.853440940E-1,9.786644936E0,5.593222976E-1,9.806767142E0
2.130094594E0,2.757728100E-1,9.786644936E0,5.688936114E-1,9.807043881E0
2.132254728E0,3.044866920E-1,9.767501831E0,5.641079545E-1,9.788514798E0
2.134404152E0,2.949153781E-1,9.772287369E0,5.826523304E-1,9.794082869E0
2.136548806E0,2.997010350E-1,9.748359680E0,5.641079545E-1,9.769265835E0
2.138724100E0,2.991028428E-1,9.743574142E0,5.545366406E-1,9.763923928E0
2.140881683E0,2.895315289E-1,9.734002113E0,5.545366406E-1,9.754083070E0
2.143043873E0,2.997010350E-1,9.705288887E0,5.832505226E-1,9.727416628E0
2.145197529E0,2.895315289E-1,9.700503349E0,5.688936114E-1,9.721483101E0
2.147354135E0,2.943171859E-1,9.686145782E0,5.736792088E-1,9.707582117E0
2.149512583E0,2.997010350E-1,9.686145782E0,5.784648657E-1,9.708030821E0
2.151668659E0,3.038884699E-1,9.676574707E0,5.688936114E-1,9.698045484E0
2.153826435E0,3.044866920E-1,9.686145782E0,5.784648657E-1,9.708179740E0
2.155976745E0,3.140579760E-1,9.686145782E0,5.736792088E-1,9.708200676E0
2.158113973E0,2.997010350E-1,9.681360245E0,6.071787477E-1,9.705010197E0
2.160299154E0,3.044866920E-1,9.690931320E0,6.071787477E-1,9.714706791E0
2.162457488E0,3.140579760E-1,9.705288887E0,6.161518097E-1,9.729897628E0
2.164620940E0,3.236292601E-1,9.714859962E0,6.065805554E-1,9.739157046E0
2.166772216E0,2.997010350E-1,9.705288887E0,5.880361795E-1,9.727704747E0
2.168928294E0,3.044866920E-1,9.710074425E0,6.209374666E-1,9.734671069E0
2.171086040E0,3.044866920E-1,9.705288887E0,6.113662124E-1,9.729291504E0
2.173243439E0,2.901297510E-1,9.714859962E0,6.023930907E-1,9.737841486E0
2.175401164E0,2.901297510E-1,9.714859962E0,6.167500615E-1,9.738740165E0
2.177551310E0,2.662015259E-1,9.710074425E0,6.215356588E-1,9.733586963E0
2.179683777E0,2.614158690E-1,9.686145782E0,6.406782866E-1,9.710830399E0
2.181853790E0,2.662015259E-1,9.681360245E0,6.311069727E-1,9.705560028E0
2.184003519E0,2.757728100E-1,9.690931320E0,6.454638839E-1,9.716317416E0
2.186195627E0,2.901297510E-1,9.710074425E0,6.640082598E-1,9.737074898E0
2.188345845E0,2.997010350E-1,9.714859962E0,6.831508875E-1,9.743460368E0
2.190494253E0,3.188436031E-1,9.710074425E0,6.783652306E-1,9.738962263E0
2.192645172E0,3.098705411E-1,9.695717812E0,7.166503668E-1,9.727103957E0
2.194805939E0,3.290131092E-1,9.686145782E0,7.262216806E-1,9.718902596E0
2.196981212E0,3.385843933E-1,9.681958199E0,7.399803996E-1,9.716096178E0
2.199137177E0,3.290131092E-1,9.629316330E0,7.405785918E-1,9.663355487E0
2.201292929E0,3.194418252E-1,9.595816612E0,7.645068169E-1,9.631521697E0
2.203436473E0,3.098705411E-1,9.562317848E0,7.597211599E-1,9.597453757E0
2.205592621E0,3.146561682E-1,9.562317848E0,7.549355626E-1,9.597231832E0
2.207762890E0,3.050848842E-1,9.576674461E0,7.549355626E-1,9.611227717E0
2.209922578E0,3.194418252E-1,9.586245537E0,7.740781307E-1,9.622751349E0
2.212074351E0,3.242274821E-1,9.591031075E0,7.740781307E-1,9.627678717E0
2.214208151E0,3.242274821E-1,9.591031075E0,7.549355626E-1,9.626158540E0
2.216393546E0,3.385843933E-1,9.605388641E0,7.405785918E-1,9.639843722E0
2.218551474E0,3.385843933E-1,9.624530792E0,7.453642488E-1,9.659285700E0
2.220714764E0,3.577269912E-1,9.648459435E0,7.495517135E-1,9.684139912E0
2.222862213E0,3.577269912E-1,9.648459435E0,7.351947427E-1,9.683039263E0
2.225010448E0,3.577269912E-1,9.658030510E0,7.208378315E-1,9.691497774E0
2.227180543E0,3.672982752E-1,9.690931320E0,7.016952634E-1,9.723241955E0
2.229338126E0,3.667000830E-1,9.681958199E0,6.873382926E-1,9.713249582E0
2.231499401E0,3.619144261E-1,9.695717812E0,6.640082598E-1,9.725164929E0
2.233649679E0,3.379862010E-1,9.676574707E0,6.496513486E-1,9.704245442E0
2.235798504E0,3.427718580E-1,9.667003632E0,6.305087805E-1,9.693605783E0
2.237967490E0,3.332005441E-1,9.643673897E0,6.071787477E-1,9.668512546E0
2.240125175E0,3.475574851E-1,9.648459435E0,5.970092416E-1,9.673158000E0
2.242285544E0,3.236292601E-1,9.648459435E0,6.071787477E-1,9.672960839E0
2.244436728E0,3.332005441E-1,9.686145782E0,5.970092416E-1,9.710245247E0
2.246581900E0,3.379862010E-1,9.729216576E0,6.209374666E-1,9.754868179E0
2.248745231E0,3.523431420E-1,9.753145218E0,6.257231236E-1,9.779545836E0
2.250912600E0,3.571287692E-1,9.781859398E0,6.113662124E-1,9.807450376E0
2.253074251E0,3.523431420E-1,9.786644936E0,6.209374666E-1,9.812651432E0
2.255226676E0,3.667000830E-1,9.796216011E0,6.161518097E-1,9.822421297E0
2.257369275E0,3.619144261E-1,9.801001549E0,6.161518097E-1,9.827016661E0
2.259530256E0,3.475574851E-1,9.791430473E0,6.352944374E-1,9.818172230E0
2.261700135E0,3.427718580E-1,9.781859398E0,6.496513486E-1,9.809399202E0
2.263860933E0,3.571287692E-1,9.801001549E0,6.346961856E-1,9.828021752E0
2.266019798E0,3.667000830E-1,9.796216011E0,6.346961856E-1,9.823602004E0
2.268169212E0,3.523431420E-1,9.815358162E0,6.586244106E-1,9.843738500E0
2.270318250E0,3.284149170E-1,9.796216011E0,6.681957245E-1,9.824468943E0
2.272486524E0,3.098705411E-1,9.777072906E0,6.831508875E-1,9.805807948E0
2.274644574E0,3.092723191E-1,9.762716293E0,6.783652306E-1,9.791141822E0
2.276804740E0,3.050848842E-1,9.772287369E0,7.022934556E-1,9.802239198E0
2.278955538E0,3.002992272E-1,9.762716293E0,7.256234884E-1,9.794250277E0
2.281101474E0,3.002992272E-1,9.772287369E0,7.351947427E-1,9.804503626E0
2.283275464E0,3.050848842E-1,9.781859398E0,7.304090858E-1,9.813834495E0
2.285432060E0,3.146561682E-1,9.767501831E0,7.543373108E-1,9.801638909E0
2.287591128E0,3.050848842E-1,9.753145218E0,7.686942816E-1,9.788146368E0
2.289730553E0,3.050848842E-1,9.738788605E0,7.639086246E-1,9.773465949E0
2.291888287E0,3.146561682E-1,9.710672379E0,7.782655358E-1,9.746889955E0
2.294046104E0,3.098705411E-1,9.701101303E0,7.830511928E-1,9.737584681E0
2.296213453E0,3.002992272E-1,9.701101303E0,7.830511928E-1,9.737284801E0
2.298380191E0,3.098705411E-1,9.710672379E0,7.878368497E-1,9.747505563E0
2.300538486E0,3.050848842E-1,9.720243454E0,7.782655358E-1,9.756121506E0
2.302694033E0,3.146561682E-1,9.729216576E0,7.591229677E-1,9.763858426E0
2.304845645E0,3.146561682E-1,9.738788605E0,7.495517135E-1,9.772657764E0
2.306988274E0,3.290131092E-1,9.738788605E0,7.399803996E-1,9.772401143E0
2.309164147E0,3.194418252E-1,9.701101303E0,7.304090858E-1,9.733802289E0
2.311323114E0,2.907279432E-1,9.686744690E0,7.262216806E-1,9.718278827E0
2.313491285E0,2.757728100E-1,9.681958199E0,7.022934556E-1,9.711312028E0
2.315637556E0,2.805584669E-1,9.672387123E0,6.879364848E-1,9.700878430E0
2.317797733E0,2.901297510E-1,9.672387123E0,6.687939167E-1,9.699821299E0
2.319949690E0,2.757728100E-1,9.653244972E0,6.454638839E-1,9.678729915E0
2.322110812E0,2.805584669E-1,9.634101868E0,6.263213158E-1,9.658514909E0
2.324269464E0,2.901297510E-1,9.624530792E0,5.928218365E-1,9.647134599E0
2.326424717E0,2.757728100E-1,9.638887405E0,5.928218365E-1,9.661037149E0
2.328580824E0,2.847459018E-1,9.634101868E0,5.593222976E-1,9.654524352E0
2.330737746E0,2.703889608E-1,9.619745255E0,5.545366406E-1,9.639508278E0
2.332896375E0,2.847459018E-1,9.624530792E0,5.066801906E-1,9.642063991E0
2.335049493E0,2.751746178E-1,9.619745255E0,5.024927258E-1,9.636789858E0
2.337187036E0,2.656033039E-1,9.629316330E0,5.168496966E-1,9.646834284E0
2.339369521E0,2.703889608E-1,9.629316330E0,4.977070987E-1,9.645960581E0
2.341525476E0,2.703889608E-1,9.638887405E0,5.024927258E-1,9.655763022E0
2.343689579E0,2.560320199E-1,9.643673897E0,4.929214716E-1,9.659656837E0
2.345837416E0,2.608176768E-1,9.658030510E0,5.024927258E-1,9.674609973E0
2.347985233E0,2.464607358E-1,9.676574707E0,4.977070987E-1,9.692499848E0
2.350156264E0,2.703889608E-1,9.671789169E0,5.114658475E-1,9.689077007E0
2.352314284E0,2.703889608E-1,9.690931320E0,5.210371017E-1,9.708694027E0
2.354474410E0,2.703889608E-1,9.719645500E0,5.210371017E-1,9.737355827E0
2.356625279E0,2.656033039E-1,9.743574142E0,5.353940725E-1,9.761886549E0
2.358769750E0,2.799602449E-1,9.762716293E0,5.545366406E-1,9.782459714E0
2.360943242E0,2.799602449E-1,9.777072906E0,5.497509837E-1,9.796517672E0
2.363100376E0,2.805584669E-1,9.796216011E0,5.545366406E-1,9.815909131E0
2.365262119E0,2.901297510E-1,9.801001549E0,5.635097623E-1,9.821473916E0
2.367410354E0,2.949153781E-1,9.829715729E0,5.874379873E-1,9.851668375E0
2.369552007E0,2.997010350E-1,9.848857880E0,6.017948985E-1,9.871776909E0
2.371730911E0,2.901297510E-1,9.834501266E0,6.113662124E-1,9.857756290E0
2.373889490E0,3.092723191E-1,9.829715729E0,6.209374666E-1,9.854162776E0
2.376050674E0,2.853440940E-1,9.834501266E0,6.209374666E-1,9.858214836E0
2.378203496E0,2.949153781E-1,9.839286804E0,6.496513486E-1,9.865119704E0
2.380362188E0,2.901297510E-1,9.848857880E0,6.209374666E-1,9.872676443E0
2.382517827E0,2.757728100E-1,9.858428955E0,6.352944374E-1,9.882725896E0
2.384675583E0,2.757728100E-1,9.853643417E0,6.400800347E-1,9.878261066E0
2.386833308E0,2.709871531E-1,9.848857880E0,6.305087805E-1,9.872739078E0
2.388990505E0,2.614158690E-1,9.858428955E0,6.352944374E-1,9.882335693E0
2.391148616E0,2.518445849E-1,9.858428955E0,6.448656917E-1,9.882707064E0
2.393304865E0,2.470589429E-1,9.853643417E0,6.352944374E-1,9.877192199E0
2.395462683E0,2.422732860E-1,9.844072342E0,6.592226624E-1,9.869094748E0
2.397619930E0,2.422732860E-1,9.853643417E0,6.544370055E-1,9.878323377E0
2.399769812E0,2.518445849E-1,9.848857880E0,6.496513486E-1,9.873473254E0
2.401901036E0,2.566302419E-1,9.834501266E0,6.687939167E-1,9.860555742E0
2.404081741E0,2.422732860E-1,9.848857880E0,6.783652306E-1,9.875164670E0
2.406250616E0,2.715853751E-1,9.829715729E0,6.879364848E-1,9.857501029E0
2.408416317E0,2.572284341E-1,9.810572624E0,7.022934556E-1,9.839040491E0
2.410564429E0,2.524427772E-1,9.791430473E0,7.118647099E-1,9.820518797E0
2.412706629E0,2.524427772E-1,9.772287369E0,7.214360237E-1,9.802132304E0
2.414866491E0,2.620140910E-1,9.753145218E0,7.310073376E-1,9.784010668E0
2.417037308E0,2.620140910E-1,9.748359680E0,7.310073376E-1,9.779240235E0
2.419198228E0,2.572284341E-1,9.753145218E0,7.357929349E-1,9.784242400E0
2.421356594E0,2.428714931E-1,9.753145218E0,7.262216806E-1,9.783160335E0
2.423502762E0,2.524427772E-1,9.748359680E0,7.357929349E-1,9.779347374E0
2.425639563E0,2.620140910E-1,9.729216576E0,7.357929349E-1,9.760517292E0
2.427824144E0,2.572284341E-1,9.719645500E0,7.357929349E-1,9.750849520E0
2.429982154E0,2.620140910E-1,9.695717812E0,7.501499057E-1,9.728222867E0
2.432145483E0,2.715853751E-1,9.667601585E0,7.357929349E-1,9.699364426E0
2.434292913E0,2.715853751E-1,9.662816048E0,7.357929349E-1,9.694594568E0
2.436454057E0,2.667997181E-1,9.653244972E0,7.405785918E-1,9.685286637E0
2.438613135E0,2.763710022E-1,9.676574707E0,7.310073376E-1,9.708081722E0
2.440770667E0,2.757728100E-1,9.671789169E0,7.118647099E-1,9.701871353E0
2.442928147E0,2.763710022E-1,9.667601585E0,7.214360237E-1,9.698421072E0
2.445084519E0,2.805584669E-1,9.676574707E0,6.975077987E-1,9.705736873E0
2.447242162E0,2.805584669E-1,9.690931320E0,6.927221417E-1,9.719708168E0
2.449399805E0,2.757728100E-1,9.705288887E0,6.735795736E-1,9.732542960E0
2.451546770E0,2.709871531E-1,9.714859962E0,6.640082598E-1,9.741295863E0
2.453717668E0,2.805584669E-1,9.734002113E0,6.592226624E-1,9.760332203E0
2.455872585E0,2.757728100E-1,9.753145218E0,6.448656917E-1,9.778330330E0
2.458020434E0,2.853440940E-1,9.777072906E0,6.257231236E-1,9.801229785E0
2.460188118E0,2.853440940E-1,9.791430473E0,6.113662124E-1,9.814647248E0
2.462343828E0,2.997010350E-1,9.810572624E0,6.017948985E-1,9.833580885E0
2.464504524E0,2.949153781E-1,9.829715729E0,5.635097623E-1,9.850270536E0
2.466655311E0,3.044866920E-1,9.844072342E0,5.874379873E-1,9.866283789E0
2.468803352E0,2.901297510E-1,9.863214493E0,5.730810165E-1,9.884108319E0
2.470974536E0,3.092723191E-1,9.853643417E0,5.778666735E-1,9.875417351E0
2.473133308E0,2.997010350E-1,9.872786522E0,5.635097623E-1,9.893395659E0
2.475292264E0,3.188436031E-1,9.863214493E0,5.443671346E-1,9.883369716E0
2.477444028E0,3.140579760E-1,9.868000984E0,5.587241054E-1,9.888794085E0
2.479590258E0,3.044866920E-1,9.863214493E0,5.395814776E-1,9.882654524E0
2.481761655E0,3.044866920E-1,9.863214493E0,5.539384484E-1,9.883448795E0
2.483918454E0,3.092723191E-1,9.877572060E0,5.682953596E-1,9.898739252E0
2.486079547E0,3.140579760E-1,9.882357597E0,5.635097623E-1,9.903391709E0
2.488236397E0,3.188436031E-1,9.896714211E0,5.682953596E-1,9.918143628E0
2.490396889E0,3.044866920E-1,9.911071777E0,5.730810165E-1,9.932294688E0
2.492527494E0,3.140579760E-1,9.896714211E0,5.826523304E-1,9.918823938E0
2.494707039E0,3.092723191E-1,9.906285286E0,5.778666735E-1,9.927943766E0
2.496860716E0,3.236292601E-1,9.887143135E0,5.874379873E-1,9.909864715E0
2.499026375E0,3.379862010E-1,9.877572060E0,6.107679605E-1,9.902206924E0
2.501178607E0,3.284149170E-1,9.844072342E0,6.017948985E-1,9.867916382E0
2.503337360E0,3.284149170E-1,9.834501266E0,6.161518097E-1,9.859255275E0
2.505493610E0,3.284149170E-1,9.815358162E0,6.305087805E-1,9.841069735E0
2.507651895E0,3.379862010E-1,9.824930191E0,6.113662124E-1,9.849733833E0
2.509808287E0,3.284149170E-1,9.810572624E0,6.305087805E-1,9.836296706E0
2.511965157E0,3.332005441E-1,9.815358162E0,6.257231236E-1,9.840925154E0
2.514116301E0,3.475574851E-1,9.829715729E0,6.346961856E-1,9.856315070E0
2.516275043E0,3.523431420E-1,9.863214493E0,6.155536175E-1,9.888683030E0
2.518411691E0,3.619144261E-1,9.872786522E0,5.868397355E-1,9.896831646E0
2.520581583E0,3.619144261E-1,9.868000984E0,5.820540786E-1,9.891774989E0
2.522739062E0,3.667000830E-1,9.853643417E0,5.635097623E-1,9.876553083E0
2.524909218E0,3.523431420E-1,9.839286804E0,5.395814776E-1,9.860368080E0
2.527055144E0,3.523431420E-1,9.815358162E0,5.491527915E-1,9.837020399E0
2.529213398E0,3.379862010E-1,9.824930191E0,5.491527915E-1,9.846068084E0
2.531367562E0,3.236292601E-1,9.815358162E0,5.443671346E-1,9.835767755E0
2.533525236E0,3.421736360E-1,9.801001549E0,5.252245665E-1,9.821027187E0
2.535676268E0,3.373879790E-1,9.810572624E0,5.012963414E-1,9.829163946E0
2.537842315E0,3.469592929E-1,9.815358162E0,4.917250574E-1,9.833790222E0
2.540000305E0,3.278166950E-1,9.805787086E0,4.875376225E-1,9.823370964E0
2.542161700E0,3.278166950E-1,9.801001549E0,5.108676553E-1,9.819780084E0
2.544312427E0,3.373879790E-1,9.805787086E0,4.731806815E-1,9.822992975E0
2.546462533E0,3.517449200E-1,9.820143700E0,4.917250574E-1,9.838736723E0
2.548629211E0,3.565305769E-1,9.810572624E0,4.821537733E-1,9.828882008E0
2.550787048E0,3.613162339E-1,9.824930191E0,4.917250574E-1,9.843860839E0
2.552946929E0,3.708875179E-1,9.820143700E0,5.012963414E-1,9.839922655E0
2.555099497E0,3.565305769E-1,9.820143700E0,5.108676553E-1,9.839884252E0
2.557249582E0,3.565305769E-1,9.805787086E0,5.012963414E-1,9.825063484E0
2.559418141E0,3.469592929E-1,9.757930756E0,5.204389095E-1,9.777957355E0
2.561574819E0,3.517449200E-1,9.734002113E0,5.347958803E-1,9.755025795E0
2.563735443E0,3.278166950E-1,9.705288887E0,5.587241054E-1,9.726883817E0
2.565889028E0,3.134597540E-1,9.705288887E0,5.593222976E-1,9.726444923E0
2.568046794E0,3.086741269E-1,9.676574707E0,5.641079545E-1,9.697917073E0
2.570204213E0,3.092723191E-1,9.658030510E0,5.784648657E-1,9.680280177E0
2.572361764E0,2.949153781E-1,9.667601585E0,5.880361795E-1,9.689957794E0
2.574519429E0,2.997010350E-1,9.686744690E0,6.257231236E-1,9.711558723E0
2.576677673E0,3.044866920E-1,9.695717812E0,6.400800347E-1,9.721592384E0
2.578834391E0,3.188436031E-1,9.691530228E0,6.305087805E-1,9.717250677E0
2.580993113E0,3.188436031E-1,9.729216576E0,6.448656917E-1,9.755776144E0
2.583150034E0,3.427718580E-1,9.734002113E0,6.544370055E-1,9.761996593E0
2.585306498E0,3.236292601E-1,9.724431038E0,6.592226624E-1,9.752121278E0
2.587463603E0,3.290131092E-1,9.729216576E0,7.016952634E-1,9.760034889E0
2.589621257E0,3.236292601E-1,9.705886841E0,6.879364848E-1,9.735616666E0
2.591779622E0,3.194418252E-1,9.677172661E0,7.022934556E-1,9.707879783E0
2.593937418E0,3.098705411E-1,9.658030510E0,7.118647099E-1,9.689185954E0
2.596094208E0,3.098705411E-1,9.658030510E0,7.118647099E-1,9.689185954E0
2.598252249E0,3.146561682E-1,9.677172661E0,7.166503668E-1,9.708772680E0
2.600403829E0,3.146561682E-1,9.686744690E0,7.022934556E-1,9.717265422E0
2.602547333E0,3.194418252E-1,9.719645500E0,7.208378315E-1,9.751572125E0
2.604723602E0,3.146561682E-1,9.743574142E0,7.304090858E-1,9.775977854E0
2.606881124E0,3.337987661E-1,9.781859398E0,7.160521746E-1,9.813711103E0
2.609043865E0,3.385843933E-1,9.791430473E0,7.064808607E-1,9.822721889E0
2.611197623E0,3.242274821E-1,9.829715729E0,7.064808607E-1,9.860403135E0
2.613351705E0,3.290131092E-1,9.839286804E0,7.064808607E-1,9.870102819E0
2.615512086E0,3.337987661E-1,9.844072342E0,7.160521746E-1,9.875723397E0
2.617667980E0,3.385843933E-1,9.829715729E0,6.873382926E-1,9.859532678E0
2.619826601E0,3.098705411E-1,9.844072342E0,6.777670383E-1,9.872241295E0
2.621986796E0,3.098705411E-1,9.844072342E0,6.825526357E-1,9.872570999E0
2.624152772E0,2.949153781E-1,9.829715729E0,6.640082598E-1,9.856530493E0
2.626295401E0,2.805584669E-1,9.815358162E0,6.592226624E-1,9.841470592E0
2.628473522E0,2.853440940E-1,9.815358162E0,6.352944374E-1,9.840034356E0
2.630626456E0,2.901297510E-1,9.796216011E0,6.352944374E-1,9.821080512E0
2.632786622E0,2.709871531E-1,9.805787086E0,6.305087805E-1,9.829772924E0
2.634924969E0,2.853440940E-1,9.786644936E0,6.257231236E-1,9.810778245E0
2.637086162E0,2.805584669E-1,9.796216011E0,6.352944374E-1,9.820802422E0
2.639256278E0,2.805584669E-1,9.786644936E0,6.352944374E-1,9.811255331E0
2.641416730E0,2.757728100E-1,9.791430473E0,6.592226624E-1,9.817470951E0
2.643574616E0,2.805584669E-1,9.757930756E0,6.544370055E-1,9.783875177E0
2.645731741E0,2.662015259E-1,9.743574142E0,6.448656917E-1,9.768518418E0
2.647894827E0,2.709871531E-1,9.734002113E0,6.735795736E-1,9.761041984E0
2.650044771E0,2.662015259E-1,9.734002113E0,6.735795736E-1,9.760910298E0
2.652200817E0,2.662015259E-1,9.714859962E0,6.831508875E-1,9.742487489E0
2.654356416E0,2.614158690E-1,9.700503349E0,6.783652306E-1,9.727706969E0
2.656507682E0,2.662015259E-1,9.700503349E0,6.975077987E-1,9.729190388E0
2.658641532E0,2.620140910E-1,9.690931320E0,7.118647099E-1,9.720573677E0
2.660831118E0,2.614158690E-1,9.677172661E0,7.118647099E-1,9.706840904E0
2.662989442E0,2.859423161E-1,9.677172661E0,7.262216806E-1,9.708595761E0
2.665153973E0,2.715853751E-1,9.686744690E0,7.214360237E-1,9.717368535E0
2.667302014E0,2.763710022E-1,9.686744690E0,7.166503668E-1,9.717149344E0
2.669451205E0,2.524427772E-1,9.681958199E0,7.214360237E-1,9.712080717E0
2.671618196E0,2.667997181E-1,9.690931320E0,7.262216806E-1,9.721765780E0
2.673775494E0,2.524427772E-1,9.677172661E0,7.357929349E-1,9.708387575E0
2.675935458E0,2.620140910E-1,9.695717812E0,7.453642488E-1,9.727855012E0
2.678087914E0,2.572284341E-1,9.696315765E0,7.453642488E-1,9.728323275E0
2.680233960E0,2.572284341E-1,9.710074425E0,7.405785918E-1,9.741671748E0
2.682392966E0,2.620140910E-1,9.710672379E0,7.501499057E-1,9.743127542E0
2.684564557E0,2.667997181E-1,9.738788605E0,7.310073376E-1,9.769828929E0
2.686719943E0,2.620140910E-1,9.738788605E0,7.262216806E-1,9.769342496E0
2.688865176E0,2.667997181E-1,9.748359680E0,7.070791125E-1,9.777610108E0
2.691022016E0,2.662015259E-1,9.767501831E0,6.879364848E-1,9.795315813E0
2.693193006E0,2.715853751E-1,9.781859398E0,6.927221417E-1,9.810117016E0
2.695353803E0,2.901297510E-1,9.781859398E0,6.640082598E-1,9.808662270E0
2.697512159E0,2.901297510E-1,9.796216011E0,6.496513486E-1,9.822019664E0
2.699663069E0,2.997010350E-1,9.824930191E0,6.400800347E-1,9.850318595E0
2.701810905E0,2.901297510E-1,9.824930191E0,6.257231236E-1,9.849109501E0
2.703967013E0,2.949153781E-1,9.839286804E0,6.065805554E-1,9.862376989E0
2.706138187E0,3.044866920E-1,9.829715729E0,5.826523304E-1,9.851675349E0
2.708297428E0,2.997010350E-1,9.829715729E0,5.491527915E-1,9.849604094E0
2.710458988E0,2.895315289E-1,9.834501266E0,5.210371017E-1,9.852549078E0
2.712615491E0,2.943171859E-1,9.834501266E0,5.018945336E-1,9.851697107E0
2.714750064E0,2.847459018E-1,9.829715729E0,4.827519655E-1,9.845681337E0
2.716925204E0,2.703889608E-1,9.829715729E0,4.779663086E-1,9.845043082E0
2.719081099E0,2.799602449E-1,9.844072342E0,4.588237405E-1,9.858735073E0
2.721244318E0,2.799602449E-1,9.848857880E0,4.588237405E-1,9.863513497E0
2.723392561E0,2.799602449E-1,9.872786522E0,4.540380836E-1,9.887185749E0
2.725535373E0,2.847459018E-1,9.891928673E0,4.588237405E-1,9.906656970E0
2.727712192E0,2.799602449E-1,9.906285286E0,4.444667995E-1,9.920202450E0
2.729870070E0,2.991028428E-1,9.896714211E0,4.396811724E-1,9.910990577E0
2.732033145E0,2.799602449E-1,9.911071777E0,4.540380836E-1,9.925415462E0
2.734184014E0,2.943171859E-1,9.901499748E0,4.779663086E-1,9.917397424E0
2.736339348E0,2.799602449E-1,9.906285286E0,5.018945336E-1,9.922941299E0
2.738499373E0,2.847459018E-1,9.887143135E0,5.066801906E-1,9.904211449E0
2.740657210E0,2.895315289E-1,9.901499748E0,5.204389095E-1,9.919394257E0
2.742815362E0,2.997010350E-1,9.896714211E0,5.539384484E-1,9.916734376E0
2.744972009E0,3.140579760E-1,9.906285286E0,5.826523304E-1,9.928373700E0
2.747129876E0,3.092723191E-1,9.896714211E0,6.299105883E-1,9.921561817E0
2.749289138E0,3.044866920E-1,9.863214493E0,6.257231236E-1,9.887731879E0
2.751444758E0,3.140579760E-1,9.858428955E0,6.299105883E-1,9.883523725E0
2.753603011E0,3.188436031E-1,9.829715729E0,6.634100676E-1,9.857235184E0
2.755758315E0,3.044866920E-1,9.805787086E0,6.687939167E-1,9.833283167E0
2.757914413E0,3.002992272E-1,9.786644936E0,6.831508875E-1,9.815054450E0
2.760074386E0,2.907279432E-1,9.767501831E0,7.070791125E-1,9.797375956E0
2.762231825E0,2.955136001E-1,9.748359680E0,7.399803996E-1,9.780869886E0
2.764390151E0,2.907279432E-1,9.734002113E0,7.118647099E-1,9.764326461E0
2.766548222E0,2.955136001E-1,9.715457916E0,7.405785918E-1,9.748123279E0
2.768706385E0,2.907279432E-1,9.705886841E0,7.310073376E-1,9.737717075E0
2.770863357E0,2.907279432E-1,9.696315765E0,7.405785918E-1,9.728901213E0
2.773018793E0,2.955136001E-1,9.715457916E0,7.686942816E-1,9.750299570E0
2.775176121E0,3.002992272E-1,9.734002113E0,7.399803996E-1,9.766706085E0
2.777333644E0,3.098705411E-1,9.743574142E0,7.591229677E-1,9.778012298E0
2.779488205E0,3.002992272E-1,9.767501831E0,7.543373108E-1,9.801188521E0
2.781636530E0,3.050848842E-1,9.786644936E0,7.543373108E-1,9.820413467E0
2.783807458E0,3.242274821E-1,9.801001549E0,7.543373108E-1,9.835333222E0
2.785964309E0,3.194418252E-1,9.820143700E0,7.399803996E-1,9.853163774E0
2.788125707E0,3.194418252E-1,9.810572624E0,7.495517135E-1,9.844348941E0
2.790276688E0,3.146561682E-1,9.820143700E0,7.256234884E-1,9.851941952E0
2.792428542E0,3.290131092E-1,9.853643417E0,7.304090858E-1,9.886153734E0
2.794593714E0,3.194418252E-1,9.858428955E0,7.016952634E-1,9.888530770E0
2.796751267E0,3.385843933E-1,9.882357597E0,7.064808607E-1,9.913362007E0
2.798910986E0,3.385843933E-1,9.896714211E0,6.969096065E-1,9.926997258E0
2.801066961E0,3.768695593E-1,9.963713646E0,6.867401004E-1,9.994460078E0
2.803223068E0,3.960121572E-1,1.002114105E1,6.819544435E-1,1.005212194E1
2.805382085E0,4.199403822E-1,1.005882835E1,6.669993401E-1,1.008966134E1
2.807538234E0,4.390829504E-1,1.009232807E1,6.526423693E-1,1.012293543E1
2.809696264E0,4.390829504E-1,1.007318497E1,6.430711150E-1,1.010323659E1
2.811851863E0,4.247260094E-1,1.003071213E1,6.245267391E-1,1.005910591E1
2.814006607E0,3.954139352E-1,9.982855797E0,5.910272002E-1,1.000815044E1
2.816174566E0,3.667000830E-1,9.949356079E0,5.581258535E-1,9.971743068E0
2.818328344E0,3.667000830E-1,9.911071777E0,5.724828243E-1,9.934362049E0
2.820485022E0,3.379862010E-1,9.896714211E0,5.395814776E-1,9.917173741E0
2.822640671E0,3.332005441E-1,9.891928673E0,5.395814776E-1,9.912236057E0
2.824798366E0,3.278166950E-1,9.915857315E0,5.108676553E-1,9.934418747E0
2.826955857E0,3.421736360E-1,9.920642853E0,5.108676553E-1,9.939679229E0
2.829112779E0,3.230310678E-1,9.911071777E0,5.156532526E-1,9.929732681E0
2.831270565E0,3.373879790E-1,9.906285286E0,5.204389095E-1,9.925682620E0
2.833428442E0,3.373879790E-1,9.901499748E0,5.204389095E-1,9.920906439E0
2.835586676E0,3.373879790E-1,9.887143135E0,5.108676553E-1,9.906079738E0
2.837743363E0,3.469592929E-1,9.906285286E0,5.156532526E-1,9.925762802E0
2.839901689E0,3.571287692E-1,9.896714211E0,5.252245665E-1,9.917073861E0
2.842057816E0,3.379862010E-1,9.896714211E0,5.443671346E-1,9.917435274E0
2.844215714E0,3.379862010E-1,9.872786522E0,5.395814776E-1,9.893295535E0
2.846373593E0,3.379862010E-1,9.829715729E0,5.587241054E-1,9.851381558E0
2.848530596E0,3.236292601E-1,9.820143700E0,5.682953596E-1,9.841896047E0
2.850688025E0,3.236292601E-1,9.796216011E0,5.587241054E-1,9.817472010E0
2.852846259E0,3.278166950E-1,9.777072906E0,5.539384484E-1,9.798237913E0
2.854999802E0,3.236292601E-1,9.777072906E0,5.587241054E-1,9.798370433E0
2.857149797E0,3.379862010E-1,9.786644936E0,5.682953596E-1,9.808955774E0
2.859322618E0,3.475574851E-1,9.801001549E0,5.587241054E-1,9.823064705E0
2.861475319E0,3.427718580E-1,9.796216011E0,5.635097623E-1,9.818395181E0
2.863635678E0,3.475574851E-1,9.801001549E0,5.635097623E-1,9.823338069E0
2.865788836E0,3.284149170E-1,9.772287369E0,5.778666735E-1,9.794865322E0
2.867946449E0,3.379862010E-1,9.753145218E0,5.874379873E-1,9.776664038E0
2.870100533E0,3.332005441E-1,9.700503349E0,5.922235847E-1,9.724274606E0
2.872262661E0,3.284149170E-1,9.710074425E0,6.257231236E-1,9.735755293E0
2.874421139E0,3.188436031E-1,9.705288887E0,6.161518097E-1,9.730053272E0
2.876578712E0,3.332005441E-1,9.671789169E0,6.113662124E-1,9.696818911E0
2.878737902E0,3.332005441E-1,9.686145782E0,6.496513486E-1,9.713623917E0
2.880901344E0,3.427718580E-1,9.667003632E0,6.640082598E-1,9.695842342E0
2.883049934E0,3.379862010E-1,9.648459435E0,6.735795736E-1,9.677846536E0
2.885207710E0,3.427718580E-1,9.629316330E0,6.735795736E-1,9.658930322E0
2.887364723E0,3.523431420E-1,9.610174179E0,6.735795736E-1,9.640192056E0
2.889520413E0,3.427718580E-1,9.595816612E0,6.783652306E-1,9.625869747E0
2.891671780E0,3.332005441E-1,9.595816612E0,6.831508875E-1,9.625872126E0
2.893836759E0,3.332005441E-1,9.595816612E0,6.640082598E-1,9.624532510E0
2.895994718E0,3.523431420E-1,9.595816612E0,6.879364848E-1,9.626894554E0
2.898154163E0,3.475574851E-1,9.614959717E0,6.687939167E-1,9.644456017E0
2.900310046E0,3.619144261E-1,9.619745255E0,6.831508875E-1,9.650760382E0
2.902468818E0,3.619144261E-1,9.634101868E0,6.400800347E-1,9.662122091E0
2.904625699E0,3.619144261E-1,9.629316330E0,6.448656917E-1,9.657668807E0
2.906782265E0,3.858426511E-1,9.614959717E0,6.496513486E-1,9.644603246E0
2.908940153E0,3.762713671E-1,9.610174179E0,6.448656917E-1,9.639132723E0
2.911096647E0,3.762713671E-1,9.600603104E0,6.400800347E-1,9.629271133E0
2.913254413E0,3.762713671E-1,9.581459999E0,6.113662124E-1,9.608315383E0
2.915412188E0,3.667000830E-1,9.567103386E0,6.017948985E-1,9.593023155E0
2.917569385E0,3.667000830E-1,9.557532310E0,5.922235847E-1,9.582881696E0
2.919727140E0,3.469592929E-1,9.562317848E0,5.784648657E-1,9.586079750E0
2.921881895E0,3.421736360E-1,9.552745819E0,5.545366406E-1,9.574943674E0
2.924020933E0,3.326023519E-1,9.567103386E0,5.353940725E-1,9.587843258E0
2.926168201E0,3.278166950E-1,9.571888924E0,5.401797295E-1,9.592722006E0
2.928356413E0,3.278166950E-1,9.586245537E0,5.641079545E-1,9.608422610E0
2.930517485E0,3.230310678E-1,9.605388641E0,5.545366406E-1,9.626803774E0
2.932679441E0,3.373879790E-1,9.600603104E0,5.545366406E-1,9.622521576E0
2.934826089E0,3.475574851E-1,9.610174179E0,5.784648657E-1,9.633839606E0
2.936974628E0,3.523431420E-1,9.610174179E0,5.922235847E-1,9.634849361E0
2.939143757E0,3.619144261E-1,9.643673897E0,5.922235847E-1,9.668617122E0
2.941295094E0,3.571287692E-1,9.624530792E0,6.113662124E-1,9.650538978E0
2.943463073E0,3.667000830E-1,9.605388641E0,6.209374666E-1,9.632420425E0
2.945620747E0,3.523431420E-1,9.605388641E0,6.209374666E-1,9.631884550E0
2.947794341E0,3.571287692E-1,9.610174179E0,6.400800347E-1,9.638085451E0
2.949931395E0,3.284149170E-1,9.610174179E0,6.400800347E-1,9.637064209E0
2.952088865E0,3.332005441E-1,9.629316330E0,6.496513486E-1,9.656956170E0
2.954242115E0,3.523431420E-1,9.648459435E0,6.496513486E-1,9.676722690E0
2.956401346E0,3.571287692E-1,9.653244972E0,6.592226624E-1,9.682316560E0
2.958543568E0,3.571287692E-1,9.681958199E0,6.735795736E-1,9.711929003E0
2.960719756E0,3.762713671E-1,9.681958199E0,6.496513486E-1,9.711021655E0
2.962876027E0,3.762713671E-1,9.686744690E0,6.496513486E-1,9.715793828E0
2.965038115E0,3.714857101E-1,9.677172661E0,6.496513486E-1,9.706066104E0
2.967186299E0,3.714857101E-1,9.695717812E0,6.592226624E-1,9.725200257E0
2.969330434E0,3.667000830E-1,9.690931320E0,6.400800347E-1,9.718967088E0
2.971506267E0,3.619144261E-1,9.695717812E0,6.209374666E-1,9.722319130E0
2.973664509E0,3.667000830E-1,9.710074425E0,6.209374666E-1,9.736815579E0
2.975825825E0,3.667000830E-1,9.705288887E0,6.209374666E-1,9.732043191E0
2.977980356E0,3.714857101E-1,9.714859962E0,6.209374666E-1,9.741769298E0
2.980139139E0,3.714857101E-1,9.700503349E0,6.065805554E-1,9.726546501E0
2.982293548E0,3.810569942E-1,9.714859962E0,5.730810165E-1,9.739205839E0
2.984450490E0,3.810569942E-1,9.710074425E0,5.778666735E-1,9.734715181E0
2.986607391E0,3.619144261E-1,9.710074425E0,5.682953596E-1,9.733421136E0
2.988771494E0,3.762713671E-1,9.729216576E0,5.635097623E-1,9.752783119E0
2.990943044E0,3.858426511E-1,9.729216576E0,5.491527915E-1,9.752338105E0
2.993068054E0,3.858426511E-1,9.719645500E0,5.635097623E-1,9.743609519E0
2.995239146E0,3.762713671E-1,9.724431038E0,5.682953596E-1,9.748286966E0
2.997389923E0,3.804588020E-1,9.743574142E0,5.395814776E-1,9.765916964E0
2.999556295E0,3.948157430E-1,9.743574142E0,5.300102234E-1,9.765962696E0
3.001706970E0,3.906283081E-1,9.729216576E0,5.491527915E-1,9.752528618E0
3.003855265E0,3.852444589E-1,9.729216576E0,5.443671346E-1,9.752046147E0
3.006025940E0,3.996013701E-1,9.719645500E0,5.443671346E-1,9.743075771E0
3.008184052E0,3.804588020E-1,9.724431038E0,5.443671346E-1,9.747083845E0
3.010343923E0,3.954139352E-1,9.738788605E0,5.635097623E-1,9.763088595E0
3.012491191E0,3.906283081E-1,9.757930756E0,5.395814776E-1,9.780641660E0
3.014619191E0,3.906283081E-1,9.777072906E0,5.682953596E-1,9.801362390E0
3.016787049E0,4.001995921E-1,9.781859398E0,5.820540786E-1,9.807329909E0
3.018942211E0,4.001995921E-1,9.820143700E0,5.868397355E-1,9.845799250E0
3.021109255E0,3.954139352E-1,9.853643417E0,5.868397355E-1,9.879019266E0
3.023275117E0,3.954139352E-1,9.877572060E0,6.155536175E-1,9.904629636E0
3.025434144E0,3.906283081E-1,9.911071777E0,6.011967063E-1,9.936969947E0
3.027589875E0,4.001995921E-1,9.920642853E0,6.197410822E-1,9.948034647E0
3.029745363E0,4.007977843E-1,9.939785004E0,6.484549642E-1,9.968974803E0
3.031901368E0,4.055834413E-1,9.944570541E0,6.484549642E-1,9.973939794E0
3.034056915E0,4.103690982E-1,9.949356079E0,6.723831892E-1,9.980490386E0
3.036206605E0,4.007977843E-1,9.968499184E0,6.867401004E-1,1.000016134E1
3.038374483E0,4.055834413E-1,9.978070259E0,6.867401004E-1,1.000989490E1
3.040532096E0,4.055834413E-1,9.987641335E0,6.915257573E-1,1.001976473E1
3.042690430E0,4.007977843E-1,1.000678444E1,7.100701332E-1,1.003994887E1
3.044834595E0,3.960121572E-1,9.982855797E0,7.058826685E-1,1.001561310E1
3.046995362E0,3.816552162E-1,9.987641335E0,6.963114142E-1,1.001915614E1
3.049161480E0,3.768695593E-1,9.982855797E0,7.106683254E-1,1.001521293E1
3.051321983E0,3.720839322E-1,9.978070259E0,6.915257573E-1,1.000892304E1
3.053478822E0,3.625126183E-1,9.973284721E0,7.202396393E-1,1.000582674E1
3.055631563E0,3.672982752E-1,9.963713646E0,7.345965505E-1,9.997506176E0
3.057781649E0,3.672982752E-1,9.958928108E0,7.393822074E-1,9.993089769E0
3.059950126E0,3.768695593E-1,9.954142570E0,7.393822074E-1,9.988677141E0
3.062106762E0,3.720839322E-1,9.944570541E0,7.298108935E-1,9.978254038E0
3.064267529E0,3.816552162E-1,9.944570541E0,7.345965505E-1,9.978966682E0
3.066418682E0,3.966103494E-1,9.934999466E0,7.674978375E-1,9.972490516E0
3.068569338E0,3.768695593E-1,9.920642853E0,7.489534616E-1,9.956009068E0
3.070736249E0,3.768695593E-1,9.915857315E0,7.441678643E-1,9.950881507E0
3.072893902E0,3.912265003E-1,9.901499748E0,7.250252366E-1,9.935714219E0
3.075053947E0,3.816552162E-1,9.882357597E0,7.298108935E-1,9.916616173E0
3.077210044E0,3.816552162E-1,9.858428955E0,7.202396393E-1,9.892068909E0
3.079367434E0,3.672982752E-1,9.839286804E0,7.250252366E-1,9.872797700E0
3.081524875E0,3.672982752E-1,9.815358162E0,7.256234884E-1,9.848994533E0
3.083680880E0,3.816552162E-1,9.824930191E0,7.202396393E-1,9.858684451E0
3.085838350E0,3.625126183E-1,9.805787086E0,7.160521746E-1,9.838577463E0
3.087995760E0,3.577269912E-1,9.786644936E0,7.256234884E-1,9.820026331E0
3.090153567E0,3.577269912E-1,9.777072906E0,7.256234884E-1,9.810486872E0
3.092311719E0,3.625126183E-1,9.772287369E0,7.304090858E-1,9.806248684E0
3.094470705E0,3.720839322E-1,9.767501831E0,7.399803996E-1,9.802556272E0
3.096626355E0,3.720839322E-1,9.781859398E0,7.399803996E-1,9.816862570E0
3.098784518E0,3.672982752E-1,9.786644936E0,7.208378315E-1,9.820027205E0
3.100940382E0,3.577269912E-1,9.796216011E0,7.399803996E-1,9.830635164E0
3.103098493E0,3.577269912E-1,9.801001549E0,7.208378315E-1,9.833982262E0
3.105255537E0,3.577269912E-1,9.824930191E0,7.016952634E-1,9.856449569E0
3.107413241E0,3.577269912E-1,9.829715729E0,6.921239495E-1,9.860543366E0
3.109570905E0,3.481557071E-1,9.853643417E0,6.729813814E-1,9.882732665E0
3.111729647E0,3.427718580E-1,9.858428955E0,6.538388133E-1,9.886031519E0
3.113887515E0,3.475574851E-1,9.868000984E0,6.346961856E-1,9.894497404E0
3.116044182E0,3.379862010E-1,9.872786522E0,6.251249313E-1,9.898329635E0
3.118200372E0,3.475574851E-1,9.891928673E0,6.059823632E-1,9.916565116E0
3.120357609E0,3.427718580E-1,9.896714211E0,5.820540786E-1,9.919739496E0
3.122511569E0,3.427718580E-1,9.911071777E0,5.724828243E-1,9.933507583E0
3.124661329E0,3.475574851E-1,9.906285286E0,5.539384484E-1,9.927846301E0
3.126847029E0,3.475574851E-1,9.906285286E0,5.204389095E-1,9.926033499E0
3.129005496E0,3.421736360E-1,9.887143135E0,5.156532526E-1,9.906491834E0
3.131166325E0,3.517449200E-1,9.891928673E0,4.965106845E-1,9.910625622E0
3.133316979E0,3.373879790E-1,9.882357597E0,4.869394004E-1,9.900097591E0
3.135473097E0,3.326023519E-1,9.877572060E0,4.821537733E-1,9.894924274E0
3.137630924E0,3.421736360E-1,9.868000984E0,4.773681164E-1,9.885464407E0
3.139788090E0,3.421736360E-1,9.882357597E0,4.630111754E-1,9.899113790E0
3.141945855E0,3.373879790E-1,9.868000984E0,4.534398913E-1,9.884173299E0
3.144104729E0,3.373879790E-1,9.853643417E0,4.492524564E-1,9.869647765E0
3.146260979E0,3.469592929E-1,9.829715729E0,4.157529473E-1,9.844619981E0
3.148394169E0,3.326023519E-1,9.824930191E0,4.253242314E-1,9.839754991E0
3.150576858E0,3.463610709E-1,9.781859398E0,4.061816335E-1,9.796413772E0
3.152731581E0,3.463610709E-1,9.757930756E0,3.966103494E-1,9.772127629E0
3.154896692E0,3.415754437E-1,9.738788605E0,3.918247223E-1,9.752651121E0
3.157044600E0,3.559323549E-1,9.719645500E0,3.918247223E-1,9.734049676E0
3.159192520E0,3.367897868E-1,9.719645500E0,3.828516304E-1,9.733011424E0
3.161363591E0,3.367897868E-1,9.714859962E0,3.637090325E-1,9.727497916E0
3.163522780E0,3.415754437E-1,9.719645500E0,3.828516304E-1,9.733178196E0
3.165682113E0,3.320041299E-1,9.710074425E0,3.780659735E-1,9.723101663E0
3.167838668E0,3.272185028E-1,9.729216576E0,3.684946895E-1,9.741689559E0
3.170001296E0,3.415754437E-1,9.724431038E0,3.828516304E-1,9.737957084E0
3.172150151E0,3.272185028E-1,9.757930756E0,3.732803464E-1,9.770548746E0
3.174307540E0,3.367897868E-1,9.772287369E0,3.678964674E-1,9.785007695E0
3.176463068E0,3.367897868E-1,9.781859398E0,3.774677813E-1,9.794931473E0
3.178620152E0,3.415754437E-1,9.781859398E0,3.918247223E-1,9.795660962E0
3.180769730E0,3.463610709E-1,9.781859398E0,3.966103494E-1,9.796021593E0
3.182938003E0,3.326023519E-1,9.777072906E0,4.205385745E-1,9.791763459E0
3.185096186E0,3.421736360E-1,9.767501831E0,4.444667995E-1,9.783594715E0
3.187255376E0,3.421736360E-1,9.748359680E0,4.588237405E-1,9.765148154E0
3.189409693E0,3.373879790E-1,9.743574142E0,4.779663086E-1,9.761122861E0
3.191565618E0,3.326023519E-1,9.738788605E0,4.971089065E-1,9.757138160E0
3.193721684E0,3.373879790E-1,9.762716293E0,5.210371017E-1,9.782430155E0
3.195869807E0,3.278166950E-1,9.748359680E0,5.539384484E-1,9.769586892E0
3.198041398E0,3.188436031E-1,9.743574142E0,5.778666735E-1,9.765901300E0
3.200201239E0,3.284149170E-1,9.729216576E0,5.922235847E-1,9.752755524E0
3.202373479E0,3.188436031E-1,9.729216576E0,6.209374666E-1,9.754223688E0
3.204512395E0,3.092723191E-1,9.743574142E0,6.305087805E-1,9.768849869E0
3.206669775E0,3.092723191E-1,9.753145218E0,6.592226624E-1,9.780289644E0
3.208823472E0,3.092723191E-1,9.757930756E0,6.783652306E-1,9.786370184E0
3.210981593E0,3.242274821E-1,9.772287369E0,7.112665176E-1,9.803500596E0
3.213128006E0,3.290131092E-1,9.757930756E0,7.304090858E-1,9.790758892E0
3.215292831E0,3.242274821E-1,9.762716293E0,7.495517135E-1,9.796814822E0
3.217455369E0,3.242274821E-1,9.767501831E0,7.495517135E-1,9.801583711E0
3.219603603E0,3.433700502E-1,9.738788605E0,7.639086246E-1,9.774735949E0
3.221745946E0,3.242274821E-1,9.724431038E0,7.543373108E-1,9.759032086E0
3.223900630E0,3.337987661E-1,9.696315765E0,7.734799385E-1,9.732842969E0
3.226060288E0,3.290131092E-1,9.691530228E0,7.591229677E-1,9.726781351E0
3.228221197E0,3.337987661E-1,9.662816048E0,7.686942816E-1,9.699088951E0
3.230380551E0,3.481557071E-1,9.677172661E0,7.734799385E-1,9.714275800E0
3.232543229E0,3.385843933E-1,9.681958199E0,7.543373108E-1,9.717200149E0
3.234694078E0,3.385843933E-1,9.686744690E0,7.495517135E-1,9.721599141E0
3.236852667E0,3.433700502E-1,9.681958199E0,7.543373108E-1,9.717368076E0
3.239007554E0,3.481557071E-1,9.696315765E0,7.304090858E-1,9.730017947E0
3.241165941E0,3.529413342E-1,9.695717812E0,7.112665176E-1,9.728176166E0
3.243323116E0,3.571287692E-1,9.672387123E0,6.879364848E-1,9.703394778E0
3.245480800E0,3.427718580E-1,9.681958199E0,6.831508875E-1,9.712080222E0
3.247638637E0,3.523431420E-1,9.677172661E0,6.831508875E-1,9.707652215E0
3.249796974E0,3.427718580E-1,9.677172661E0,6.735795736E-1,9.706640649E0
3.251953589E0,3.523431420E-1,9.700503349E0,6.448656917E-1,9.728297008E0
3.254111894E0,3.571287692E-1,9.719645500E0,6.400800347E-1,9.747243306E0
3.256269202E0,3.619144261E-1,9.729216576E0,6.113662124E-1,9.755122033E0
3.258430529E0,3.571287692E-1,9.762716293E0,6.017948985E-1,9.787764172E0
3.260583921E0,3.571287692E-1,9.777072906E0,5.922235847E-1,9.801501127E0
3.262744412E0,3.619144261E-1,9.791430473E0,5.491527915E-1,9.813493851E0
3.264910478E0,3.523431420E-1,9.796216011E0,5.443671346E-1,9.817653966E0
3.267064449E0,3.421736360E-1,9.810572624E0,5.347958803E-1,9.831094784E0
3.269206825E0,3.421736360E-1,9.801001549E0,5.156532526E-1,9.820519968E0
3.271381670E0,3.421736360E-1,9.820143700E0,5.156532526E-1,9.839624147E0
3.273537879E0,3.469592929E-1,9.815358162E0,5.108676553E-1,9.834766004E0
3.275700385E0,3.661018610E-1,9.834501266E0,5.108676553E-1,9.854563993E0
3.277851906E0,3.708875179E-1,9.820143700E0,5.060819983E-1,9.840167622E0
3.280006996E0,3.661018610E-1,9.801001549E0,5.012963414E-1,9.820639488E0
3.282168362E0,3.667000830E-1,9.796216011E0,5.395814776E-1,9.817915525E0
3.284326556E0,3.613162339E-1,9.777072906E0,5.347958803E-1,9.798352447E0
3.286486071E0,3.613162339E-1,9.767501831E0,5.300102234E-1,9.788541887E0
3.288646970E0,3.517449200E-1,9.743574142E0,4.971089065E-1,9.762585663E0
3.290788541E0,3.756731451E-1,9.753145218E0,5.108676553E-1,9.773738165E0
3.292955420E0,3.708875179E-1,9.748359680E0,5.204389095E-1,9.769285064E0
3.295110643E0,3.661018610E-1,9.777072906E0,5.156532526E-1,9.797503941E0
3.297272682E0,3.708875179E-1,9.762716293E0,5.252245665E-1,9.783866711E0
3.299430153E0,3.708875179E-1,9.777072906E0,5.108676553E-1,9.797433232E0
3.301593452E0,3.852444589E-1,9.777072906E0,5.156532526E-1,9.798237912E0
3.303743019E0,3.852444589E-1,9.796216011E0,4.965106845E-1,9.816352902E0
3.305901080E0,3.804588020E-1,9.810572624E0,4.917250574E-1,9.830253183E0
3.308055530E0,3.900300860E-1,9.810572624E0,4.965106845E-1,9.830868809E0
3.310215035E0,3.900300860E-1,9.820143700E0,4.965106845E-1,9.840420144E0
3.312372322E0,3.996013701E-1,9.834501266E0,4.821537733E-1,9.854418739E0
3.314527697E0,3.852444589E-1,9.824930191E0,4.917250574E-1,9.844768158E0
3.316677691E0,3.948157430E-1,9.820143700E0,5.060819983E-1,9.841098554E0
3.318846180E0,3.804588020E-1,9.820143700E0,5.156532526E-1,9.841029898E0
3.321003325E0,3.900300860E-1,9.820143700E0,5.204389095E-1,9.841656487E0
3.323163511E0,3.804588020E-1,9.820143700E0,5.252245665E-1,9.841536060E0
3.325317279E0,3.661018610E-1,9.805787086E0,5.204389095E-1,9.826410719E0
3.327474577E0,3.661018610E-1,9.796216011E0,5.156532526E-1,9.816607203E0
3.329632028E0,3.661018610E-1,9.815358162E0,5.060819983E-1,9.835212525E0
3.331789691E0,3.619144261E-1,9.834501266E0,5.300102234E-1,9.855420237E0
3.333943215E0,3.762713671E-1,9.829715729E0,5.300102234E-1,9.851182786E0
3.336088387E0,3.667000830E-1,9.829715729E0,5.347958803E-1,9.851080494E0
3.338262572E0,3.858426511E-1,9.834501266E0,5.437689424E-1,9.857077375E0
3.340420653E0,3.714857101E-1,9.810572624E0,5.300102234E-1,9.831899495E0
3.342581144E0,3.571287692E-1,9.810572624E0,5.443671346E-1,9.832151939E0
3.344731850E0,3.619144261E-1,9.801001549E0,5.443671346E-1,9.822777051E0
3.346881427E0,3.571287692E-1,9.786644936E0,5.395814776E-1,9.808012450E0
3.349049499E0,3.667000830E-1,9.777072906E0,5.635097623E-1,9.800161571E0
3.351207234E0,3.810569942E-1,9.762716293E0,5.682953596E-1,9.786664063E0
3.353367989E0,3.762713671E-1,9.753145218E0,5.730810165E-1,9.777210422E0
3.355522215E0,3.619144261E-1,9.757930756E0,5.826523304E-1,9.782007893E0
3.357680754E0,3.667000830E-1,9.757930756E0,5.826523304E-1,9.782186122E0
3.359839721E0,3.858426511E-1,9.738788605E0,5.922235847E-1,9.764405093E0
3.362010222E0,3.810569942E-1,9.757930756E0,5.826523304E-1,9.782734832E0
3.364167805E0,3.858426511E-1,9.753145218E0,5.682953596E-1,9.777304118E0
3.366325530E0,3.858426511E-1,9.734002113E0,5.826523304E-1,9.759055048E0
3.368480376E0,3.858426511E-1,9.748359680E0,5.970092416E-1,9.774242223E0
3.370639658E0,3.762713671E-1,9.738788605E0,5.778666735E-1,9.763171284E0
3.372795165E0,3.714857101E-1,9.748359680E0,5.539384484E-1,9.771149671E0
3.374953236E0,3.762713671E-1,9.753145218E0,5.539384484E-1,9.776107077E0
3.377109059E0,3.661018610E-1,9.753145218E0,5.204389095E-1,9.773879929E0
3.379261148E0,3.756731451E-1,9.777072906E0,5.252245665E-1,9.798374650E0
3.381399923E0,3.756731451E-1,9.777072906E0,5.060819983E-1,9.797367193E0
3.383582966E0,3.708875179E-1,9.805787086E0,5.060819983E-1,9.825840266E0
3.385739736E0,3.804588020E-1,9.820143700E0,5.156532526E-1,9.841029898E0
3.387904073E0,3.852444589E-1,9.829715729E0,5.012963414E-1,9.850026529E0
3.390053833E0,3.996013701E-1,9.834501266E0,4.869394004E-1,9.854654047E0
3.392210509E0,4.043870270E-1,9.848857880E0,5.060819983E-1,9.870139279E0
3.394369363E0,3.900300860E-1,9.839286804E0,5.108676553E-1,9.860257301E0
3.396526774E0,3.756731451E-1,9.815358162E0,5.012963414E-1,9.835328372E0
3.398684438E0,3.565305769E-1,9.815358162E0,5.300102234E-1,9.836121224E0
3.400834758E0,3.661018610E-1,9.791430473E0,5.252245665E-1,9.812339279E0
3.402971354E0,3.613162339E-1,9.762716293E0,5.156532526E-1,9.782999393E0
3.405157806E0,3.517449200E-1,9.762716293E0,5.300102234E-1,9.783417846E0
3.407314300E0,3.667000830E-1,9.757930756E0,5.539384484E-1,9.780517849E0
3.409479685E0,3.667000830E-1,9.753145218E0,5.635097623E-1,9.776290393E0
3.411624481E0,3.667000830E-1,9.762716293E0,5.730810165E-1,9.786394649E0
3.413762553E0,3.619144261E-1,9.738788605E0,5.874379873E-1,9.763199728E0
3.415915700E0,3.714857101E-1,9.729216576E0,6.161518097E-1,9.755782893E0
3.418101573E0,3.667000830E-1,9.724431038E0,6.209374666E-1,9.751132821E0
3.420263520E0,3.619144261E-1,9.724431038E0,6.257231236E-1,9.751259944E0
3.422424439E0,3.571287692E-1,9.719645500E0,6.592226624E-1,9.748519073E0
3.424574066E0,3.619144261E-1,9.714859962E0,6.729813814E-1,9.744864806E0
3.426732687E0,3.523431420E-1,9.705288887E0,6.687939167E-1,9.734683527E0
3.428888642E0,3.475574851E-1,9.719645500E0,6.777670383E-1,9.749444754E0
3.431046367E0,3.475574851E-1,9.714859962E0,6.825526357E-1,9.745007871E0
3.433200338E0,3.529413342E-1,9.714859962E0,6.921239495E-1,9.745876422E0
3.435348776E0,3.481557071E-1,9.719645500E0,6.873382926E-1,9.750136152E0
3.437519472E0,3.529413342E-1,9.729815483E0,7.016952634E-1,9.761467777E0
3.439678295E0,3.529413342E-1,9.729815483E0,6.825526357E-1,9.760110400E0
3.441836935E0,3.481557071E-1,9.743574142E0,6.921239495E-1,9.774327856E0
3.443988984E0,3.481557071E-1,9.725028992E0,7.160521746E-1,9.757567935E0
3.446132478E0,3.577269912E-1,9.743574142E0,6.969096065E-1,9.775013487E0
3.448292319E0,3.768695593E-1,9.753145218E0,6.873382926E-1,9.784595354E0
3.450460095E0,3.529413342E-1,9.753145218E0,6.729813814E-1,9.782704798E0
3.452620983E0,3.523431420E-1,9.743574142E0,6.681957245E-1,9.772812711E0
3.454768271E0,3.379862010E-1,9.753145218E0,6.586244106E-1,9.781199437E0
3.456934419E0,3.523431420E-1,9.729216576E0,6.538388133E-1,9.757525611E0
3.459082409E0,3.475574851E-1,9.734002113E0,6.352944374E-1,9.760901207E0
3.461263521E0,3.427718580E-1,9.738788605E0,6.257231236E-1,9.764887376E0
3.463408061E0,3.714857101E-1,9.738788605E0,6.251249313E-1,9.765899155E0
3.465569215E0,3.762713671E-1,9.738788605E0,6.107679605E-1,9.765173891E0
3.467716574E0,3.667000830E-1,9.719645500E0,6.161518097E-1,9.746056672E0
3.469861655E0,3.906283081E-1,9.719645500E0,5.964110494E-1,9.745758322E0
3.472038362E0,3.667000830E-1,9.686744690E0,5.970092416E-1,9.712049818E0
3.474196616E0,3.475574851E-1,9.677172661E0,5.635097623E-1,9.699794336E0
3.476358146E0,3.571287692E-1,9.653244972E0,5.682953596E-1,9.676550990E0
3.478505230E0,3.661018610E-1,9.634101868E0,5.395814776E-1,9.656142995E0
3.480642163E0,3.517449200E-1,9.629316330E0,5.306084156E-1,9.650336925E0
3.482825512E0,3.708875179E-1,9.605388641E0,5.258227587E-1,9.626917371E0
3.484982800E0,3.469592929E-1,9.605388641E0,4.971089065E-1,9.624499414E0
3.487146893E0,3.469592929E-1,9.576674461E0,4.875376225E-1,9.595351344E0
3.489302818E0,3.373879790E-1,9.595816612E0,4.731806815E-1,9.613398310E0
3.491474815E0,3.565305769E-1,9.591031075E0,4.540380836E-1,9.608389132E0
3.493613110E0,3.756731451E-1,9.591031075E0,4.540380836E-1,9.609118480E0
3.495771354E0,3.469592929E-1,9.614959717E0,4.396811724E-1,9.631259037E0
3.497922844E0,3.661018610E-1,9.648459435E0,4.301098585E-1,9.664977730E0
3.500081933E0,3.756731451E-1,9.662816048E0,4.348955154E-1,9.679890412E0
3.502229230E0,3.756731451E-1,9.695717812E0,4.205385745E-1,9.712102084E0
3.504399966E0,3.702892959E-1,9.710074425E0,4.061816335E-1,9.725617873E0
3.506558118E0,3.655036688E-1,9.729216576E0,3.774677813E-1,9.743394174E0
3.508720442E0,3.702892959E-1,9.757930756E0,3.822534084E-1,9.772432883E0
3.510869459E0,3.655036688E-1,9.777072906E0,3.678964674E-1,9.790816889E0
3.513014569E0,3.655036688E-1,9.796216011E0,3.583251834E-1,9.809578890E0
3.515173830E0,3.607180119E-1,9.815358162E0,3.678964674E-1,9.828871814E0
3.517339165E0,3.702892959E-1,9.824930191E0,3.487538993E-1,9.838089078E0
3.519479444E0,3.559323549E-1,9.839286804E0,3.200400174E-1,9.850922712E0
3.521648958E0,3.607180119E-1,9.853643417E0,3.296113312E-1,9.865751351E0
3.523807345E0,3.750749528E-1,9.863214493E0,3.439682424E-1,9.876335125E0
3.525965294E0,3.559323549E-1,9.872786522E0,3.535395563E-1,9.885524355E0
3.528119317E0,3.798605800E-1,9.877572060E0,3.487538993E-1,9.891023867E0
3.530276076E0,3.655036688E-1,9.858428955E0,3.678964674E-1,9.872059674E0
3.532433770E0,3.607180119E-1,9.844072342E0,3.822534084E-1,9.858092890E0
3.534591536E0,3.565305769E-1,9.834501266E0,4.109672904E-1,9.849539244E0
3.536748874E0,3.421736360E-1,9.820143700E0,4.301098585E-1,9.835512166E0
3.538906488E0,3.661018610E-1,9.824930191E0,4.199403822E-1,9.840713072E0
3.541064243E0,3.661018610E-1,9.810572624E0,4.486542344E-1,9.827647552E0
3.543222375E0,3.661018610E-1,9.815358162E0,4.725824594E-1,9.833545678E0
3.545377618E0,3.661018610E-1,9.815358162E0,4.869394004E-1,9.834246102E0
3.547531773E0,3.708875179E-1,9.805787086E0,5.060819983E-1,9.825840266E0
3.549693719E0,3.661018610E-1,9.796216011E0,5.204389095E-1,9.816859751E0
3.551851546E0,3.523431420E-1,9.786644936E0,5.395814776E-1,9.807839362E0
3.554009790E0,3.714857101E-1,9.757930756E0,5.539384484E-1,9.780698445E0
3.556164921E0,3.667000830E-1,9.757930756E0,5.730810165E-1,9.781620696E0
3.558318862E0,3.571287692E-1,9.748359680E0,5.682953596E-1,9.771438841E0
3.560482243E0,3.667000830E-1,9.734002113E0,5.730810165E-1,9.757750148E0
3.562638980E0,3.475574851E-1,9.720243454E0,5.970092416E-1,9.744760081E0
3.564798466E0,3.571287692E-1,9.720243454E0,6.113662124E-1,9.745996225E0
3.566951186E0,3.571287692E-1,9.725028992E0,6.017948985E-1,9.750173688E0
3.569102747E0,3.571287692E-1,9.715457916E0,6.017948985E-1,9.740627320E0
3.571268224E0,3.571287692E-1,9.738788605E0,5.970092416E-1,9.763604072E0
3.573426009E0,3.714857101E-1,9.734601021E0,6.203392744E-1,9.761417903E0
3.575585982E0,3.714857101E-1,9.748359680E0,6.113662124E-1,9.774573481E0
3.577742904E0,3.906283081E-1,9.753145218E0,6.203392744E-1,9.780657081E0
3.579898310E0,3.714857101E-1,9.781859398E0,6.017948985E-1,9.807391703E0
3.582056898E0,3.714857101E-1,9.805787086E0,6.155536175E-1,9.832109045E0
3.584212691E0,3.762713671E-1,9.810572624E0,6.155536175E-1,9.837063668E0
3.586370742E0,3.667000830E-1,9.805787086E0,6.011967063E-1,9.831040983E0
3.588525447E0,3.714857101E-1,9.801001549E0,6.203392744E-1,9.827637244E0
3.590675695E0,3.906283081E-1,9.810572624E0,5.964110494E-1,9.836444064E0
3.592843460E0,3.619144261E-1,9.810572624E0,6.017948985E-1,9.835673559E0
3.595001723E0,3.571287692E-1,9.839286804E0,5.826523304E-1,9.862990901E0
3.597160802E0,3.667000830E-1,9.829715729E0,6.011967063E-1,9.854908307E0
3.599316492E0,3.667000830E-1,9.853643417E0,5.820540786E-1,9.877628486E0
3.601472682E0,3.858426511E-1,9.872786522E0,5.676971674E-1,9.896619035E0
3.603630478E0,3.667000830E-1,9.872786522E0,5.724828243E-1,9.896166896E0
