"Time (s)","Acceleration x (m/s^2)","Acceleration y (m/s^2)","Acceleration z (m/s^2)","Absolute acceleration (m/s^2)"
1.487408600E-2,-8.434699476E-2,2.530409992E-1,9.756733894E0,9.760379114E0
1.703062100E-2,-9.391828626E-2,2.338984162E-1,9.728020668E0,9.731285384E0
1.918979100E-2,-9.930214286E-2,2.673979402E-1,9.699904442E0,9.704097524E0
2.134641700E-2,-8.434699476E-2,2.626122832E-1,9.737591743E0,9.741497451E0
2.350284100E-2,-8.913264424E-2,2.721835673E-1,9.751948357E0,9.756153201E0
2.565931500E-2,-7.956135273E-2,2.673979402E-1,9.747162819E0,9.751154531E0
2.781871900E-2,-8.434699476E-2,2.626122832E-1,9.718449593E0,9.722362990E0
2.997623000E-2,-1.034895778E-1,2.673979402E-1,9.742377281E0,9.746595654E0
3.214018100E-2,-9.391828626E-2,2.578266263E-1,9.751948357E0,9.755808114E0
3.428946300E-2,-8.913264424E-2,2.673979402E-1,9.742377281E0,9.746453785E0
3.644831800E-2,-7.956135273E-2,2.626122832E-1,9.742377281E0,9.746240830E0
3.860375400E-2,-8.913264424E-2,2.578266263E-1,9.742377281E0,9.746195888E0
4.076300500E-2,-7.956135273E-2,2.721835673E-1,9.737591743E0,9.741719913E0
4.291977400E-2,-7.477571070E-2,2.626122832E-1,9.761520386E0,9.765338543E0
4.507743800E-2,-7.477571070E-2,2.673979402E-1,9.747162819E0,9.751116658E0
4.723374000E-2,-7.477571070E-2,2.721835673E-1,9.766305923E0,9.770384163E0
4.939708000E-2,-6.999006122E-2,2.626122832E-1,9.771091461E0,9.774870442E0
5.156547600E-2,-6.999006122E-2,2.626122832E-1,9.790233612E0,9.794005207E0
5.370812600E-2,-7.956135273E-2,2.626122832E-1,9.775876999E0,9.779727313E0
5.586458000E-2,-7.956135273E-2,2.721835673E-1,9.761520386E0,9.765638440E0
5.801814400E-2,-7.477571070E-2,2.626122832E-1,9.775876999E0,9.779689551E0
6.017824000E-2,-8.434699476E-2,2.578266263E-1,9.761520386E0,9.765288999E0
6.233733900E-2,-7.477571070E-2,2.721835673E-1,9.785448074E0,9.789518339E0
6.449403700E-2,-7.956135273E-2,2.626122832E-1,9.780662537E0,9.784510968E0
6.665267800E-2,-8.434699476E-2,2.626122832E-1,9.804591179E0,9.808470208E0
6.880805300E-2,-7.477571070E-2,2.769692242E-1,9.795019150E0,9.799219535E0
7.096821900E-2,-7.956135273E-2,2.434697002E-1,9.799804688E0,9.803151504E0
7.312507000E-2,-7.956135273E-2,2.721835673E-1,9.799804688E0,9.803906661E0
7.528251000E-2,-6.999006122E-2,2.721835673E-1,9.790233612E0,9.794266521E0
7.743884200E-2,-7.477571070E-2,2.673979402E-1,9.790233612E0,9.794170064E0
7.959620100E-2,-7.956135273E-2,2.769692242E-1,9.790233612E0,9.794473755E0
8.174585900E-2,-7.956135273E-2,2.626122832E-1,9.795019150E0,9.798861942E0
8.391159000E-2,-6.041877344E-2,2.769692242E-1,9.795019150E0,9.799120497E0
8.606798300E-2,-6.999006122E-2,2.769692242E-1,9.795019150E0,9.799184186E0
8.822843400E-2,-7.477571070E-2,2.673979402E-1,9.814162254E0,9.818089112E0
9.038403400E-2,-7.477571070E-2,2.578266263E-1,9.809376717E0,9.813049350E0
9.254128100E-2,-7.477571070E-2,2.769692242E-1,9.814162254E0,9.818354450E0
9.470006500E-2,-7.956135273E-2,2.673979402E-1,9.799804688E0,9.803774966E0
9.686414700E-2,-6.520441920E-2,2.673979402E-1,9.823733330E0,9.827588199E0
9.901207700E-2,-5.563312769E-2,2.578266263E-1,9.818947792E0,9.822489774E0
1.011704330E-1,-6.999006122E-2,2.626122832E-1,9.814162254E0,9.817924657E0
1.033250760E-1,-6.520441920E-2,2.578266263E-1,9.809376717E0,9.812981084E0
1.054861980E-1,-6.999006122E-2,2.673979402E-1,9.814162254E0,9.818053831E0
1.076427540E-1,-6.520441920E-2,2.530409992E-1,9.814162254E0,9.817640354E0
1.098003360E-1,-6.999006122E-2,2.626122832E-1,9.814162254E0,9.817924657E0
1.119566380E-1,-7.477571070E-2,2.530409992E-1,9.799804688E0,9.803356214E0
1.141150750E-1,-6.041877344E-2,2.673979402E-1,9.809376717E0,9.813206594E0
1.162716000E-1,-6.041877344E-2,2.673979402E-1,9.804591179E0,9.808422925E0
1.184330890E-1,-7.477571070E-2,2.626122832E-1,9.809376717E0,9.813176254E0
1.205997050E-1,-6.999006122E-2,2.578266263E-1,9.795019150E0,9.798661813E0
1.227580720E-1,-6.520441920E-2,2.769692242E-1,9.799804688E0,9.803934694E0
1.249151770E-1,-6.999006122E-2,2.578266263E-1,9.809376717E0,9.813014050E0
1.270698900E-1,-6.999006122E-2,2.626122832E-1,9.795019150E0,9.798788903E0
1.292239840E-1,-6.041877344E-2,2.673979402E-1,9.799804688E0,9.803638304E0
1.313745170E-1,-6.999006122E-2,2.865405083E-1,9.799804688E0,9.804242754E0
1.335388960E-1,-7.477571070E-2,2.578266263E-1,9.785448074E0,9.789129685E0
1.356899480E-1,-6.999006122E-2,2.626122832E-1,9.785448074E0,9.789221513E0
1.378588220E-1,-8.434699476E-2,2.673979402E-1,9.799804688E0,9.803814971E0
1.400151340E-1,-8.434699476E-2,2.673979402E-1,9.799804688E0,9.803814971E0
1.421753410E-1,-7.956135273E-2,2.578266263E-1,9.771091461E0,9.774816260E0
1.443325370E-1,-6.520441920E-2,2.673979402E-1,9.771091461E0,9.774967090E0
1.464976580E-1,-8.913264424E-2,2.626122832E-1,9.790233612E0,9.794160710E0
1.486440810E-1,-7.956135273E-2,2.673979402E-1,9.780662537E0,9.784640582E0
1.508009520E-1,-7.477571070E-2,2.721835673E-1,9.771091461E0,9.775167704E0
1.529564910E-1,-7.477571070E-2,2.673979402E-1,9.751948357E0,9.755900257E0
1.551157720E-1,-6.999006122E-2,2.626122832E-1,9.780662537E0,9.784437821E0
1.572745450E-1,-7.477571070E-2,2.626122832E-1,9.775876999E0,9.779689551E0
1.594318730E-1,-7.477571070E-2,2.721835673E-1,9.766305923E0,9.770384163E0
1.615892530E-1,-7.956135273E-2,2.721835673E-1,9.747162819E0,9.751286937E0
1.637458500E-1,-8.913264424E-2,2.578266263E-1,9.756733894E0,9.760546884E0
1.659045110E-1,-8.913264424E-2,2.721835673E-1,9.775876999E0,9.780071555E0
1.680591840E-1,-8.434699476E-2,2.769692242E-1,9.766305923E0,9.770596592E0
1.702190450E-1,-7.477571070E-2,2.530409992E-1,9.737591743E0,9.741165953E0
1.723750920E-1,-8.913264424E-2,2.673979402E-1,9.728020668E0,9.732103185E0
1.745344550E-1,-7.477571070E-2,2.626122832E-1,9.756733894E0,9.760553924E0
1.766885290E-1,-7.477571070E-2,2.673979402E-1,9.751948357E0,9.755900257E0
1.788384420E-1,-9.870393574E-2,2.673979402E-1,9.723235130E0,9.727412067E0
1.810052610E-1,-7.956135273E-2,2.626122832E-1,9.747162819E0,9.751024471E0
1.831625900E-1,-7.956135273E-2,2.626122832E-1,9.751948357E0,9.755808115E0
1.853198270E-1,-7.956135273E-2,2.626122832E-1,9.718449593E0,9.722322650E0
1.874784870E-1,-8.973085135E-2,2.626122832E-1,9.713663101E0,9.717626649E0
1.896349320E-1,-8.913264424E-2,2.769692242E-1,9.723235130E0,9.727587470E0
1.917943760E-1,-7.477571070E-2,2.578266263E-1,9.732806206E0,9.736507722E0
1.939509310E-1,-8.434699476E-2,2.578266263E-1,9.732806206E0,9.736585933E0
1.961082500E-1,-8.973085135E-2,2.530409992E-1,9.718449593E0,9.722157366E0
1.982646730E-1,-8.434699476E-2,2.673979402E-1,9.742377281E0,9.746411194E0
2.004203020E-1,-7.477571070E-2,2.721835673E-1,9.713663101E0,9.717763433E0
2.025691670E-1,-8.015955985E-2,2.626122832E-1,9.708877563E0,9.712759356E0
2.047355290E-1,-8.015955985E-2,2.673979402E-1,9.708877563E0,9.712889928E0
2.068841400E-1,-8.494520187E-2,2.673979402E-1,9.708877563E0,9.712930602E0
2.090557100E-1,-6.580262631E-2,2.578266263E-1,9.708877563E0,9.712523261E0
2.112104240E-1,-7.956135273E-2,2.626122832E-1,9.728020668E0,9.731889916E0
2.133704900E-1,-8.913264424E-2,2.626122832E-1,9.723235130E0,9.727189277E0
2.155244610E-1,-7.477571070E-2,2.530409992E-1,9.718449593E0,9.722030839E0
2.176854510E-1,-8.973085135E-2,2.673979402E-1,9.699904442E0,9.704004301E0
2.198550180E-1,-8.015955985E-2,2.673979402E-1,9.685547829E0,9.689569854E0
2.220105360E-1,-7.477571070E-2,2.673979402E-1,9.713663101E0,9.717630571E0
2.241543040E-1,-8.434699476E-2,2.626122832E-1,9.718449593E0,9.722362990E0
2.263100560E-1,-7.058826834E-2,2.482553422E-1,9.699306488E0,9.702739807E0
2.284670590E-1,-8.494520187E-2,2.530409992E-1,9.695118904E0,9.698792502E0
2.306262690E-1,-8.015955985E-2,2.673979402E-1,9.713663101E0,9.717673490E0
2.327792440E-1,-7.477571070E-2,2.578266263E-1,9.718449593E0,9.722156575E0
2.349591660E-1,-7.537391037E-2,2.673979402E-1,9.684949875E0,9.688933737E0
2.371152030E-1,-7.537391037E-2,2.721835673E-1,9.694520950E0,9.698634006E0
2.392752980E-1,-7.956135273E-2,2.626122832E-1,9.718449593E0,9.722322650E0
2.414261880E-1,-8.494520187E-2,2.673979402E-1,9.694520950E0,9.698579989E0
2.435859370E-1,-8.015955985E-2,2.673979402E-1,9.694520950E0,9.698539254E0
2.457472940E-1,-8.494520187E-2,2.817548811E-1,9.699306488E0,9.703769775E0
2.478869630E-1,-6.520441920E-2,2.578266263E-1,9.713663101E0,9.717302971E0
2.500569560E-1,-6.999006122E-2,2.721835673E-1,9.718449593E0,9.722512278E0
2.522129630E-1,-8.434699476E-2,2.721835673E-1,9.713663101E0,9.717841795E0
2.543761400E-1,-8.973085135E-2,2.626122832E-1,9.690333366E0,9.694306452E0
2.565363680E-1,-8.015955985E-2,2.578266263E-1,9.708877563E0,9.712631140E0
2.586858730E-1,-7.956135273E-2,2.769692242E-1,9.713663101E0,9.717936654E0
2.608453690E-1,-7.477571070E-2,2.626122832E-1,9.713663101E0,9.717500062E0
2.629979060E-1,-8.494520187E-2,2.578266263E-1,9.708877563E0,9.712671816E0
2.651462420E-1,-7.058826834E-2,2.530409992E-1,9.708877563E0,9.712431003E0
2.673086070E-1,-8.434699476E-2,2.626122832E-1,9.728020668E0,9.731930217E0
2.694958220E-1,-6.520441920E-2,2.578266263E-1,9.728020668E0,9.731655168E0
2.716339040E-1,-8.434699476E-2,2.721835673E-1,9.732806206E0,9.736976684E0
2.737923820E-1,-8.913264424E-2,2.578266263E-1,9.718449593E0,9.722277597E0
2.759403420E-1,-9.870393574E-2,2.530409992E-1,9.732806206E0,9.736595342E0
2.781040180E-1,-9.391828626E-2,2.578266263E-1,9.742377281E0,9.746240829E0
2.802581630E-1,-7.956135273E-2,2.626122832E-1,9.728020668E0,9.731889916E0
2.824059590E-1,-9.391828626E-2,2.673979402E-1,9.747162819E0,9.751282240E0
2.845756270E-1,-8.434699476E-2,2.626122832E-1,9.732806206E0,9.736713833E0
2.867337180E-1,-7.956135273E-2,2.721835673E-1,9.737591743E0,9.741719913E0
2.888879450E-1,-7.956135273E-2,2.578266263E-1,9.751948357E0,9.755680465E0
2.910252740E-1,-7.956135273E-2,2.721835673E-1,9.766305923E0,9.770421961E0
2.932057550E-1,-9.391828626E-2,2.578266263E-1,9.761520386E0,9.765376360E0
2.953645280E-1,-8.434699476E-2,2.482553422E-1,9.756733894E0,9.760256217E0
2.975272270E-1,-9.391828626E-2,2.673979402E-1,9.761520386E0,9.765633750E0
2.996785140E-1,-8.913264424E-2,2.721835673E-1,9.751948357E0,9.756153201E0
3.018348360E-1,-8.434699476E-2,2.530409992E-1,9.780662537E0,9.784298841E0
3.039940560E-1,-8.913264424E-2,2.626122832E-1,9.751948357E0,9.755890866E0
3.061536430E-1,-6.999006122E-2,2.626122832E-1,9.795019150E0,9.798788903E0
3.083219370E-1,-8.913264424E-2,2.721835673E-1,9.785448074E0,9.789638529E0
3.104616170E-1,-1.082752272E-1,2.626122832E-1,9.766305923E0,9.770436025E0
3.126162700E-1,-8.913264424E-2,2.578266263E-1,9.771091461E0,9.774898851E0
3.148010340E-1,-8.434699476E-2,2.530409992E-1,9.775876999E0,9.779515083E0
3.169380180E-1,-8.913264424E-2,2.578266263E-1,9.766305923E0,9.770115178E0
3.190982760E-1,-7.956135273E-2,2.578266263E-1,9.756733894E0,9.760464173E0
3.212438660E-1,-8.434699476E-2,2.578266263E-1,9.766305923E0,9.770072690E0
3.233919980E-1,-9.870393574E-2,2.482553422E-1,9.795019150E0,9.798661813E0
3.255455930E-1,-6.999006122E-2,2.626122832E-1,9.785448074E0,9.789221513E0
3.277240600E-1,-8.913264424E-2,2.578266263E-1,9.771091461E0,9.774898851E0
3.298828330E-1,-9.870393574E-2,2.578266263E-1,9.775876999E0,9.779774442E0
3.320330300E-1,-8.434699476E-2,2.626122832E-1,9.790233612E0,9.794118327E0
3.341946310E-1,-7.477571070E-2,2.626122832E-1,9.790233612E0,9.794040576E0
3.363424280E-1,-9.870393574E-2,2.578266263E-1,9.799804688E0,9.803692618E0
3.385157580E-1,-7.477571070E-2,2.530409992E-1,9.771091461E0,9.774653421E0
3.406690790E-1,-9.391828626E-2,2.673979402E-1,9.775876999E0,9.779984325E0
3.428301720E-1,-8.434699476E-2,2.530409992E-1,9.804591179E0,9.808218612E0
3.449809390E-1,-9.870393574E-2,2.626122832E-1,9.799804688E0,9.803819643E0
3.471244020E-1,-7.956135273E-2,2.626122832E-1,9.771091461E0,9.774943660E0
3.492733490E-1,-7.477571070E-2,2.578266263E-1,9.790233612E0,9.793913424E0
3.514411140E-1,-7.956135273E-2,2.482553422E-1,9.799804688E0,9.803271527E0
3.536007210E-1,-7.956135273E-2,2.673979402E-1,9.785448074E0,9.789424175E0
3.557622510E-1,-7.956135273E-2,2.578266263E-1,9.780662537E0,9.784383692E0
3.579151550E-1,-7.477571070E-2,2.626122832E-1,9.785448074E0,9.789256899E0
3.600737950E-1,-7.477571070E-2,2.626122832E-1,9.795019150E0,9.798824254E0
3.622299850E-1,-6.520441920E-2,2.578266263E-1,9.795019150E0,9.798628798E0
3.643891040E-1,-6.520441920E-2,2.578266263E-1,9.775876999E0,9.779493713E0
3.665439290E-1,-7.956135273E-2,2.578266263E-1,9.780662537E0,9.784383692E0
3.686950220E-1,-7.477571070E-2,2.578266263E-1,9.775876999E0,9.779562213E0
3.708605300E-1,-6.520441920E-2,2.578266263E-1,9.780662537E0,9.784277482E0
3.730192520E-1,-6.999006122E-2,2.626122832E-1,9.766305923E0,9.770086756E0
3.751770580E-1,-6.041877344E-2,2.673979402E-1,9.780662537E0,9.784503653E0
3.773323330E-1,-7.477571070E-2,2.578266263E-1,9.771091461E0,9.774778479E0
3.794827540E-1,-8.434699476E-2,2.626122832E-1,9.775876999E0,9.779767417E0
3.816348840E-1,-8.434699476E-2,2.673979402E-1,9.780662537E0,9.784680666E0
3.838056810E-1,-7.477571070E-2,2.673979402E-1,9.766305923E0,9.770252016E0
3.859639250E-1,-7.956135273E-2,2.673979402E-1,9.732806206E0,9.736803803E0
3.881230750E-1,-6.999006122E-2,2.769692242E-1,9.756733894E0,9.760915267E0
3.902784200E-1,-7.956135273E-2,2.626122832E-1,9.775876999E0,9.779727313E0
3.924343850E-1,-7.956135273E-2,2.626122832E-1,9.766305923E0,9.770160009E0
3.945929540E-1,-7.477571070E-2,2.578266263E-1,9.747162819E0,9.750858885E0
3.967491940E-1,-8.913264424E-2,2.578266263E-1,9.756733894E0,9.760546884E0
3.989095030E-1,-8.434699476E-2,2.626122832E-1,9.756733894E0,9.760631942E0
4.010708100E-1,-7.477571070E-2,2.673979402E-1,9.751948357E0,9.755900257E0
4.032205600E-1,-7.477571070E-2,2.673979402E-1,9.751948357E0,9.755900257E0
4.053703910E-1,-6.999006122E-2,2.626122832E-1,9.732806206E0,9.736600046E0
4.075358890E-1,-6.520441920E-2,2.673979402E-1,9.751948357E0,9.755831591E0
4.096938880E-1,-8.913264424E-2,2.721835673E-1,9.742377281E0,9.746586254E0
4.118547070E-1,-8.434699476E-2,2.626122832E-1,9.747162819E0,9.751064693E0
4.140090230E-1,-8.913264424E-2,2.626122832E-1,9.751948357E0,9.755890866E0
4.161677250E-1,-8.434699476E-2,2.721835673E-1,9.737591743E0,9.741760173E0
4.183247790E-1,-7.956135273E-2,2.721835673E-1,9.742377281E0,9.746503424E0
4.204821900E-1,-7.477571070E-2,2.530409992E-1,9.747162819E0,9.750733520E0
4.226386330E-1,-7.956135273E-2,2.673979402E-1,9.751948357E0,9.755938111E0
4.247969380E-1,-6.999006122E-2,2.578266263E-1,9.737591743E0,9.741255881E0
4.269535030E-1,-7.537391037E-2,2.673979402E-1,9.708877563E0,9.712851612E0
4.291095200E-1,-6.999006122E-2,2.482553422E-1,9.737591743E0,9.741007252E0
4.312583650E-1,-8.434699476E-2,2.626122832E-1,9.742377281E0,9.746281071E0
4.334251740E-1,-8.434699476E-2,2.673979402E-1,9.747162819E0,9.751194752E0
4.355764500E-1,-5.563312769E-2,2.530409992E-1,9.732806206E0,9.736253973E0
4.377444190E-1,-6.999006122E-2,2.673979402E-1,9.708877563E0,9.712811324E0
4.398984210E-1,-6.520441920E-2,2.673979402E-1,9.723235130E0,9.727129827E0
4.420592590E-1,-6.520441920E-2,2.626122832E-1,9.718449593E0,9.722215761E0
4.442149910E-1,-7.058826834E-2,2.578266263E-1,9.699306488E0,9.702989417E0
4.463794700E-1,-6.520441920E-2,2.673979402E-1,9.723235130E0,9.727129827E0
4.485312040E-1,-6.520441920E-2,2.578266263E-1,9.751948357E0,9.755573942E0
4.507027430E-1,-7.956135273E-2,2.626122832E-1,9.718449593E0,9.722322650E0
4.528585470E-1,-6.999006122E-2,2.721835673E-1,9.713663101E0,9.717727787E0
4.550179810E-1,-7.537391037E-2,2.530409992E-1,9.708877563E0,9.712466963E0
4.571721460E-1,-6.520441920E-2,2.721835673E-1,9.723235130E0,9.727262560E0
4.593288130E-1,-8.015955985E-2,2.626122832E-1,9.713663101E0,9.717542982E0
4.614862740E-1,-8.015955985E-2,2.482553422E-1,9.704689980E0,9.708195706E0
4.636438160E-1,-6.041877344E-2,2.673979402E-1,9.713663101E0,9.717530701E0
4.657974820E-1,-8.434699476E-2,2.578266263E-1,9.718449593E0,9.722234901E0
4.679411080E-1,-6.999006122E-2,2.673979402E-1,9.723235130E0,9.727163084E0
4.700958330E-1,-8.015955985E-2,2.626122832E-1,9.713663101E0,9.717542982E0
4.722740870E-1,-6.999006122E-2,2.673979402E-1,9.718449593E0,9.722379480E0
4.744337340E-1,-7.477571070E-2,2.673979402E-1,9.737591743E0,9.741549468E0
4.765937480E-1,-7.956135273E-2,2.626122832E-1,9.728020668E0,9.731889916E0
4.787442000E-1,-8.494520187E-2,2.673979402E-1,9.708877563E0,9.712930602E0
4.808987820E-1,-7.477571070E-2,2.769692242E-1,9.732806206E0,9.737033429E0
4.830552150E-1,-7.956135273E-2,2.626122832E-1,9.723235130E0,9.727106282E0
4.852339770E-1,-7.477571070E-2,2.673979402E-1,9.723235130E0,9.727198696E0
4.873545630E-1,-7.956135273E-2,2.626122832E-1,9.728020668E0,9.731889916E0
4.895196430E-1,-7.956135273E-2,2.530409992E-1,9.728020668E0,9.731636341E0
4.916584670E-1,-6.041877344E-2,2.721835673E-1,9.742377281E0,9.746365959E0
4.938516230E-1,-8.434699476E-2,2.578266263E-1,9.732806206E0,9.736585933E0
4.960050560E-1,-7.058826834E-2,2.769692242E-1,9.699306488E0,9.703516940E0
4.981698820E-1,-8.913264424E-2,2.673979402E-1,9.718449593E0,9.722536129E0
5.003214940E-1,-9.391828626E-2,2.769692242E-1,9.732806206E0,9.737199250E0
5.024852610E-1,-9.391828626E-2,2.626122832E-1,9.747162819E0,9.751152182E0
5.046378800E-1,-8.434699476E-2,2.721835673E-1,9.747162819E0,9.751327157E0
5.068014340E-1,-8.913264424E-2,2.578266263E-1,9.756733894E0,9.760546884E0
5.089515200E-1,-7.956135273E-2,2.673979402E-1,9.747162819E0,9.751154531E0
5.111028670E-1,-8.434699476E-2,2.530409992E-1,9.742377281E0,9.746027870E0
5.132335130E-1,-9.391828626E-2,2.769692242E-1,9.751948357E0,9.756332782E0
5.153954300E-1,-8.434699476E-2,2.673979402E-1,9.761520386E0,9.765546391E0
5.175628290E-1,-7.956135273E-2,2.626122832E-1,9.756733894E0,9.760591760E0
5.197273790E-1,-8.434699476E-2,2.673979402E-1,9.742377281E0,9.746411194E0
5.218846980E-1,-9.391828626E-2,2.626122832E-1,9.761520386E0,9.765503883E0
5.240392590E-1,-7.956135273E-2,2.626122832E-1,9.766305923E0,9.770160009E0
5.261957040E-1,-8.913264424E-2,2.721835673E-1,9.761520386E0,9.765721108E0
5.283539170E-1,-9.391828626E-2,2.626122832E-1,9.747162819E0,9.751152182E0
5.305107260E-1,-9.870393574E-2,2.673979402E-1,9.780662537E0,9.784814959E0
5.326691840E-1,-8.913264424E-2,2.673979402E-1,9.756733894E0,9.760804402E0
5.348256080E-1,-8.913264424E-2,2.626122832E-1,9.756733894E0,9.760674471E0
5.369844110E-1,-8.434699476E-2,2.578266263E-1,9.747162819E0,9.750936981E0
5.391392580E-1,-8.913264424E-2,2.721835673E-1,9.751948357E0,9.756153201E0
5.412891600E-1,-8.434699476E-2,2.673979402E-1,9.751948357E0,9.755978312E0
5.434528060E-1,-9.391828626E-2,2.673979402E-1,9.771091461E0,9.775200798E0
5.456034610E-1,-6.999006122E-2,2.578266263E-1,9.766305923E0,9.769959292E0
5.477728440E-1,-8.434699476E-2,2.578266263E-1,9.785448074E0,9.789207476E0
5.499288700E-1,-9.870393574E-2,2.530409992E-1,9.780662537E0,9.784433140E0
5.520877150E-1,-8.434699476E-2,2.530409992E-1,9.775876999E0,9.779515083E0
5.542438540E-1,-9.391828626E-2,2.673979402E-1,9.775876999E0,9.779984325E0
5.564002460E-1,-9.870393574E-2,2.578266263E-1,9.785448074E0,9.789341707E0
5.585555300E-1,-9.391828626E-2,2.721835673E-1,9.795019150E0,9.799250210E0
5.607149650E-1,-8.434699476E-2,2.482553422E-1,9.790233612E0,9.793743886E0
5.628730760E-1,-9.391828626E-2,2.721835673E-1,9.775876999E0,9.780116341E0
5.650305770E-1,-9.870393574E-2,2.530409992E-1,9.766305923E0,9.770082067E0
5.671882110E-1,-9.391828626E-2,2.530409992E-1,9.761520386E0,9.765251181E0
5.693447770E-1,-8.913264424E-2,2.626122832E-1,9.775876999E0,9.779809862E0
5.715034590E-1,-7.956135273E-2,2.434697002E-1,9.775876999E0,9.779232005E0
5.736606850E-1,-8.913264424E-2,2.626122832E-1,9.785448074E0,9.789377092E0
5.758180440E-1,-7.956135273E-2,2.578266263E-1,9.785448074E0,9.789167411E0
5.779721280E-1,-8.913264424E-2,2.721835673E-1,9.766305923E0,9.770504588E0
5.801233220E-1,-7.477571070E-2,2.721835673E-1,9.795019150E0,9.799085439E0
5.822892980E-1,-7.477571070E-2,2.626122832E-1,9.775876999E0,9.779689551E0
5.844476840E-1,-7.956135273E-2,2.578266263E-1,9.766305923E0,9.770032547E0
5.866065080E-1,-7.956135273E-2,2.673979402E-1,9.780662537E0,9.784640582E0
5.887614660E-1,-8.434699476E-2,2.626122832E-1,9.790233612E0,9.794118327E0
5.909145130E-1,-8.434699476E-2,2.673979402E-1,9.780662537E0,9.784680666E0
5.930778730E-1,-6.520441920E-2,2.626122832E-1,9.751948357E0,9.755701593E0
5.952339910E-1,-8.913264424E-2,2.721835673E-1,9.751948357E0,9.756153201E0
5.973935780E-1,-6.520441920E-2,2.673979402E-1,9.785448074E0,9.789318020E0
5.995456170E-1,-6.520441920E-2,2.434697002E-1,9.785448074E0,9.788693637E0
6.016945640E-1,-7.477571070E-2,2.578266263E-1,9.775876999E0,9.779562213E0
6.038596940E-1,-8.434699476E-2,2.530409992E-1,9.775876999E0,9.779515083E0
6.060048760E-1,-6.999006122E-2,2.673979402E-1,9.795019150E0,9.798918329E0
6.081802710E-1,-7.477571070E-2,2.626122832E-1,9.785448074E0,9.789256899E0
6.103370310E-1,-8.434699476E-2,2.578266263E-1,9.756733894E0,9.760504355E0
6.124976550E-1,-6.999006122E-2,2.626122832E-1,9.756733894E0,9.760518434E0
6.146591240E-1,-6.999006122E-2,2.769692242E-1,9.771091461E0,9.775266692E0
6.168382930E-1,-6.999006122E-2,2.578266263E-1,9.804591179E0,9.808230287E0
6.189834250E-1,-7.956135273E-2,2.626122832E-1,9.775876999E0,9.779727313E0
6.211397670E-1,-7.956135273E-2,2.530409992E-1,9.756733894E0,9.760338931E0
6.232891300E-1,-8.434699476E-2,2.673979402E-1,9.771091461E0,9.775113524E0
6.254416470E-1,-6.999006122E-2,2.721835673E-1,9.761520386E0,9.765565152E0
6.276098800E-1,-7.477571070E-2,2.578266263E-1,9.771091461E0,9.774778479E0
6.297630690E-1,-6.999006122E-2,2.482553422E-1,9.742377281E0,9.745791113E0
6.319144870E-1,-6.520441920E-2,2.721835673E-1,9.771091461E0,9.775099174E0
6.340771970E-1,-7.956135273E-2,2.673979402E-1,9.756733894E0,9.760721692E0
6.362240170E-1,-6.520441920E-2,2.673979402E-1,9.751948357E0,9.755831591E0
6.383994840E-1,-6.999006122E-2,2.626122832E-1,9.756733894E0,9.760518434E0
6.405562530E-1,-7.956135273E-2,2.721835673E-1,9.795019150E0,9.799123126E0
6.427210980E-1,-6.520441920E-2,2.721835673E-1,9.732806206E0,9.736829677E0
6.448694960E-1,-6.999006122E-2,2.626122832E-1,9.742377281E0,9.746167396E0
6.470270280E-1,-7.477571070E-2,2.626122832E-1,9.747162819E0,9.750986598E0
6.491842340E-1,-7.477571070E-2,2.530409992E-1,9.756733894E0,9.760301094E0
6.513406770E-1,-7.956135273E-2,2.578266263E-1,9.737591743E0,9.741329352E0
6.534991550E-1,-6.999006122E-2,2.721835673E-1,9.732806206E0,9.736862900E0
6.556518960E-1,-5.084748194E-2,2.626122832E-1,9.732806206E0,9.736481259E0
6.577964990E-1,-6.999006122E-2,2.626122832E-1,9.756733894E0,9.760518434E0
6.599524030E-1,-7.477571070E-2,2.673979402E-1,9.732806206E0,9.736765875E0
6.621289170E-1,-7.956135273E-2,2.769692242E-1,9.737591743E0,9.741854799E0
6.642886260E-1,-7.477571070E-2,2.626122832E-1,9.732806206E0,9.736635623E0
6.664422830E-1,-7.956135273E-2,2.673979402E-1,9.742377281E0,9.746370953E0
6.685766720E-1,-7.956135273E-2,2.865405083E-1,9.728020668E0,9.732565006E0
6.707587400E-1,-6.520441920E-2,2.673979402E-1,9.723235130E0,9.727129827E0
6.729151330E-1,-5.563312769E-2,2.817548811E-1,9.756733894E0,9.760959847E0
6.750762360E-1,-7.477571070E-2,2.578266263E-1,9.742377281E0,9.746075162E0
6.772193940E-1,-6.999006122E-2,2.626122832E-1,9.728020668E0,9.731816374E0
6.793941270E-1,-6.999006122E-2,2.626122832E-1,9.732806206E0,9.736600046E0
6.815440300E-1,-7.956135273E-2,2.626122832E-1,9.728020668E0,9.731889916E0
6.837063530E-1,-5.563312769E-2,2.626122832E-1,9.742377281E0,9.746074869E0
6.858582900E-1,-6.520441920E-2,2.578266263E-1,9.732806206E0,9.736438919E0
6.880182130E-1,-7.477571070E-2,2.530409992E-1,9.728020668E0,9.731598392E0
6.901712690E-1,-6.999006122E-2,2.578266263E-1,9.728020668E0,9.731688409E0
6.923205110E-1,-7.477571070E-2,2.626122832E-1,9.747162819E0,9.750986598E0
6.944912260E-1,-7.956135273E-2,2.578266263E-1,9.723235130E0,9.726978255E0
6.966478730E-1,-7.956135273E-2,2.626122832E-1,9.747162819E0,9.751024471E0
6.988075210E-1,-7.956135273E-2,2.626122832E-1,9.728020668E0,9.731889916E0
7.009591330E-1,-8.434699476E-2,2.673979402E-1,9.737591743E0,9.741627638E0
7.031035530E-1,-8.913264424E-2,2.721835673E-1,9.751948357E0,9.756153201E0
7.052585820E-1,-6.999006122E-2,2.578266263E-1,9.742377281E0,9.746039620E0
7.074093590E-1,-6.041877344E-2,2.721835673E-1,9.737591743E0,9.741582381E0
7.095959130E-1,-7.956135273E-2,2.721835673E-1,9.718449593E0,9.722585890E0
7.117481350E-1,-6.999006122E-2,2.578266263E-1,9.728020668E0,9.731688409E0
7.138930840E-1,-8.913264424E-2,2.626122832E-1,9.728020668E0,9.731972871E0
7.160615620E-1,-8.494520187E-2,2.530409992E-1,9.718449593E0,9.722114375E0
7.182107120E-1,-8.913264424E-2,2.673979402E-1,9.723235130E0,9.727319656E0
7.203842960E-1,-8.434699476E-2,2.578266263E-1,9.732806206E0,9.736585933E0
7.225372600E-1,-8.434699476E-2,2.721835673E-1,9.751948357E0,9.756110652E0
7.246970300E-1,-7.477571070E-2,2.626122832E-1,9.728020668E0,9.731851968E0
7.268524060E-1,-9.391828626E-2,2.578266263E-1,9.728020668E0,9.731889916E0
7.290094190E-1,-6.999006122E-2,2.721835673E-1,9.751948357E0,9.755997092E0
7.311666660E-1,-8.434699476E-2,2.673979402E-1,9.756733894E0,9.760761874E0
7.333233540E-1,-8.913264424E-2,2.530409992E-1,9.728020668E0,9.731719298E0
7.354866120E-1,-8.913264424E-2,2.482553422E-1,9.728020668E0,9.731596039E0
7.376586300E-1,-8.434699476E-2,2.721835673E-1,9.728020668E0,9.732193197E0
7.397972920E-1,-8.913264424E-2,2.673979402E-1,9.742377281E0,9.746453785E0
7.419531360E-1,-7.477571070E-2,2.626122832E-1,9.742377281E0,9.746202938E0
7.441064460E-1,-6.520441920E-2,2.626122832E-1,9.732806206E0,9.736566821E0
7.462687800E-1,-8.434699476E-2,2.578266263E-1,9.747162819E0,9.750936981E0
7.484268410E-1,-8.434699476E-2,2.673979402E-1,9.747162819E0,9.751194752E0
7.505831730E-1,-9.870393574E-2,2.578266263E-1,9.742377281E0,9.746288120E0
7.527410710E-1,-9.391828626E-2,2.721835673E-1,9.742377281E0,9.746631194E0
7.549029670E-1,-8.434699476E-2,2.721835673E-1,9.728020668E0,9.732193197E0
7.570705090E-1,-7.477571070E-2,2.530409992E-1,9.761520386E0,9.765085837E0
7.591898330E-1,-7.956135273E-2,2.626122832E-1,9.775876999E0,9.779727313E0
7.613715850E-1,-8.913264424E-2,2.530409992E-1,9.747162819E0,9.750854188E0
7.635237660E-1,-7.956135273E-2,2.578266263E-1,9.742377281E0,9.746113054E0
7.656934140E-1,-7.477571070E-2,2.578266263E-1,9.780662537E0,9.784345948E0
7.678457680E-1,-8.434699476E-2,2.721835673E-1,9.751948357E0,9.756110652E0
7.699880310E-1,-8.434699476E-2,2.626122832E-1,9.751948357E0,9.755848317E0
7.721581460E-1,-8.434699476E-2,2.721835673E-1,9.771091461E0,9.775245606E0
7.743147020E-1,-8.434699476E-2,2.626122832E-1,9.766305923E0,9.770200152E0
7.764753470E-1,-9.391828626E-2,2.530409992E-1,9.747162819E0,9.750899108E0
7.786293490E-1,-8.434699476E-2,2.626122832E-1,9.761520386E0,9.765416523E0
7.807842260E-1,-7.956135273E-2,2.673979402E-1,9.756733894E0,9.760721692E0
7.829575860E-1,-8.913264424E-2,2.530409992E-1,9.775876999E0,9.779557530E0
7.851023120E-1,-7.956135273E-2,2.530409992E-1,9.771091461E0,9.774691202E0
7.872630570E-1,-8.434699476E-2,2.721835673E-1,9.775876999E0,9.780029111E0
7.894136630E-1,-7.956135273E-2,2.673979402E-1,9.761520386E0,9.765506229E0
7.915735550E-1,-8.913264424E-2,2.530409992E-1,9.771091461E0,9.774773794E0
7.937320020E-1,-7.956135273E-2,2.626122832E-1,9.756733894E0,9.760591760E0
7.958905100E-1,-7.477571070E-2,2.578266263E-1,9.751948357E0,9.755642610E0
7.980483470E-1,-6.999006122E-2,2.578266263E-1,9.761520386E0,9.765175545E0
8.002054830E-1,-8.434699476E-2,2.673979402E-1,9.790233612E0,9.794247815E0
8.023632600E-1,-8.913264424E-2,2.482553422E-1,9.761520386E0,9.765083491E0
8.045195700E-1,-9.391828626E-2,2.482553422E-1,9.756733894E0,9.760343623E0
8.066762380E-1,-9.391828626E-2,2.673979402E-1,9.756733894E0,9.760849276E0
8.088343500E-1,-8.913264424E-2,2.578266263E-1,9.761520386E0,9.765331507E0
8.109881890E-1,-8.913264424E-2,2.530409992E-1,9.747162819E0,9.750854188E0
8.131373290E-1,-8.913264424E-2,2.578266263E-1,9.756733894E0,9.760546884E0
8.153079530E-1,-8.434699476E-2,2.626122832E-1,9.780662537E0,9.784551052E0
8.174651790E-1,-7.956135273E-2,2.673979402E-1,9.785448074E0,9.789424175E0
8.196243700E-1,-8.434699476E-2,2.578266263E-1,9.756733894E0,9.760504355E0
8.217784840E-1,-9.391828626E-2,2.482553422E-1,9.747162819E0,9.750776091E0
8.239333000E-1,-8.913264424E-2,2.626122832E-1,9.766305923E0,9.770242639E0
8.260949930E-1,-8.913264424E-2,2.673979402E-1,9.775876999E0,9.779939539E0
8.282507950E-1,-7.956135273E-2,2.482553422E-1,9.742377281E0,9.745864549E0
8.304070650E-1,-8.913264424E-2,2.578266263E-1,9.751948357E0,9.755763217E0
8.325539570E-1,-8.434699476E-2,2.530409992E-1,9.761520386E0,9.765163819E0
8.347220880E-1,-6.999006122E-2,2.578266263E-1,9.766305923E0,9.769959292E0
8.368686750E-1,-7.956135273E-2,2.530409992E-1,9.751948357E0,9.755555161E0
8.390390950E-1,-6.999006122E-2,2.626122832E-1,9.761520386E0,9.765303071E0
8.411792320E-1,-8.434699476E-2,2.769692242E-1,9.756733894E0,9.761028770E0
8.433379340E-1,-8.913264424E-2,2.673979402E-1,9.780662537E0,9.784723090E0
8.454838700E-1,-8.913264424E-2,2.626122832E-1,9.756733894E0,9.760674471E0
8.476562940E-1,-7.956135273E-2,2.578266263E-1,9.747162819E0,9.750896759E0
8.498132970E-1,-8.434699476E-2,2.578266263E-1,9.747162819E0,9.750936981E0
8.519730980E-1,-7.956135273E-2,2.626122832E-1,9.747162819E0,9.751024471E0
8.541272120E-1,-8.913264424E-2,2.721835673E-1,9.766305923E0,9.770504588E0
8.562843780E-1,-9.391828626E-2,2.769692242E-1,9.751948357E0,9.756332782E0
8.584345140E-1,-7.477571070E-2,2.482553422E-1,9.751948357E0,9.755394347E0
8.606003370E-1,-8.434699476E-2,2.626122832E-1,9.747162819E0,9.751064693E0
8.627564960E-1,-8.434699476E-2,2.673979402E-1,9.771091461E0,9.775113524E0
8.649174250E-1,-8.913264424E-2,2.769692242E-1,9.756733894E0,9.761071297E0
8.670700840E-1,-9.391828626E-2,2.626122832E-1,9.723235130E0,9.727234307E0
8.692200380E-1,-8.434699476E-2,2.673979402E-1,9.737591743E0,9.741627638E0
8.713865220E-1,-8.434699476E-2,2.578266263E-1,9.756733894E0,9.760504355E0
8.735448170E-1,-7.477571070E-2,2.673979402E-1,9.756733894E0,9.760683857E0
8.757039260E-1,-7.956135273E-2,2.482553422E-1,9.747162819E0,9.750648375E0
8.778594750E-1,-6.520441920E-2,2.626122832E-1,9.737591743E0,9.741350512E0
8.800145040E-1,-6.999006122E-2,2.769692242E-1,9.742377281E0,9.746564813E0
8.821751490E-1,-7.956135273E-2,2.626122832E-1,9.751948357E0,9.755808115E0
8.843324570E-1,-8.434699476E-2,2.817548811E-1,9.732806206E0,9.737248937E0
8.864901510E-1,-7.477571070E-2,2.673979402E-1,9.713663101E0,9.717630571E0
8.886461170E-1,-8.434699476E-2,2.578266263E-1,9.732806206E0,9.736585933E0
8.908042790E-1,-7.956135273E-2,2.721835673E-1,9.747162819E0,9.751286937E0
8.929613440E-1,-7.477571070E-2,2.721835673E-1,9.737591743E0,9.741682004E0
8.951169940E-1,-6.999006122E-2,2.626122832E-1,9.737591743E0,9.741383720E0
8.972658380E-1,-6.999006122E-2,2.626122832E-1,9.728020668E0,9.731816374E0
8.994347030E-1,-8.434699476E-2,2.673979402E-1,9.732806206E0,9.736844084E0
9.015917150E-1,-7.956135273E-2,2.721835673E-1,9.737591743E0,9.741719913E0
9.037493700E-1,-9.391828626E-2,2.721835673E-1,9.728020668E0,9.732280856E0
9.058954990E-1,-8.913264424E-2,2.721835673E-1,9.732806206E0,9.737019316E0
9.080639360E-1,-6.999006122E-2,2.721835673E-1,9.737591743E0,9.741646445E0
9.102203790E-1,-9.391828626E-2,2.482553422E-1,9.728020668E0,9.731641047E0
9.123814210E-1,-8.913264424E-2,2.769692242E-1,9.756733894E0,9.761071297E0
9.145353820E-1,-8.434699476E-2,2.626122832E-1,9.718449593E0,9.722362990E0
9.166940840E-1,-8.434699476E-2,2.626122832E-1,9.737591743E0,9.741497451E0
9.188514230E-1,-8.434699476E-2,2.673979402E-1,9.728020668E0,9.732060532E0
9.210088020E-1,-7.956135273E-2,2.721835673E-1,9.737591743E0,9.741719913E0
9.231635270E-1,-7.956135273E-2,2.673979402E-1,9.751948357E0,9.755938111E0
9.253168060E-1,-6.999006122E-2,2.769692242E-1,9.728020668E0,9.732214377E0
9.274800450E-1,-7.477571070E-2,2.721835673E-1,9.718449593E0,9.722547906E0
9.296385840E-1,-7.956135273E-2,2.721835673E-1,9.747162819E0,9.751286937E0
9.317966040E-1,-6.520441920E-2,2.626122832E-1,9.751948357E0,9.755701593E0
9.339554490E-1,-7.956135273E-2,2.626122832E-1,9.718449593E0,9.722322650E0
9.361177110E-1,-6.999006122E-2,2.721835673E-1,9.723235130E0,9.727295817E0
9.382683760E-1,-7.956135273E-2,2.673979402E-1,9.737591743E0,9.741587377E0
9.404280040E-1,-7.956135273E-2,2.817548811E-1,9.728020668E0,9.732425286E0
9.425977430E-1,-8.434699476E-2,2.673979402E-1,9.756733894E0,9.760761874E0
9.447559670E-1,-6.999006122E-2,2.578266263E-1,9.732806206E0,9.736472144E0
9.469143940E-1,-7.477571070E-2,2.626122832E-1,9.742377281E0,9.746202938E0
9.490680190E-1,-7.477571070E-2,2.673979402E-1,9.756733894E0,9.760683857E0
9.512263560E-1,-8.913264424E-2,2.769692242E-1,9.742377281E0,9.746721073E0
9.533839180E-1,-6.999006122E-2,2.673979402E-1,9.737591743E0,9.741513909E0
9.555376450E-1,-7.956135273E-2,2.626122832E-1,9.751948357E0,9.755808115E0
9.576832760E-1,-8.434699476E-2,2.626122832E-1,9.751948357E0,9.755848317E0
9.598510620E-1,-6.520441920E-2,2.626122832E-1,9.742377281E0,9.746134204E0
9.620126320E-1,-7.477571070E-2,2.721835673E-1,9.732806206E0,9.736898476E0
9.641740090E-1,-6.520441920E-2,2.721835673E-1,9.742377281E0,9.746396801E0
9.663293440E-1,-7.477571070E-2,2.721835673E-1,9.766305923E0,9.770384163E0
9.684894800E-1,-6.520441920E-2,2.673979402E-1,9.747162819E0,9.751047959E0
9.706433300E-1,-6.999006122E-2,2.721835673E-1,9.751948357E0,9.755997092E0
9.728004450E-1,-8.434699476E-2,2.673979402E-1,9.742377281E0,9.746411194E0
9.749529310E-1,-6.520441920E-2,2.434697002E-1,9.771091461E0,9.774341791E0
9.770990290E-1,-6.999006122E-2,2.721835673E-1,9.756733894E0,9.760780644E0
9.792593380E-1,-7.956135273E-2,2.530409992E-1,9.742377281E0,9.745987628E0
9.814304500E-1,-8.434699476E-2,2.578266263E-1,9.751948357E0,9.755720667E0
9.835898440E-1,-6.520441920E-2,2.530409992E-1,9.747162819E0,9.750664817E0
9.857514050E-1,-6.999006122E-2,2.721835673E-1,9.766305923E0,9.770348709E0
9.879139720E-1,-7.956135273E-2,2.578266263E-1,9.766305923E0,9.770032547E0
9.900553800E-1,-7.477571070E-2,2.578266263E-1,9.751948357E0,9.755642610E0
9.922089650E-1,-7.956135273E-2,2.578266263E-1,9.761520386E0,9.765248836E0
9.943727340E-1,-7.956135273E-2,2.578266263E-1,9.771091461E0,9.774816260E0
9.965320150E-1,-6.520441920E-2,2.626122832E-1,9.756733894E0,9.760485291E0
9.986916420E-1,-7.477571070E-2,2.626122832E-1,9.771091461E0,9.774905880E0
1.000839449E0,-6.999006122E-2,2.626122832E-1,9.761520386E0,9.765303071E0
1.002978905E0,-6.520441920E-2,2.530409992E-1,9.771091461E0,9.774584887E0
1.005156325E0,-6.999006122E-2,2.578266263E-1,9.771091461E0,9.774743041E0
1.007296512E0,-7.956135273E-2,2.626122832E-1,9.761520386E0,9.765376360E0
1.009476749E0,-7.477571070E-2,2.578266263E-1,9.756733894E0,9.760426336E0
1.011605310E0,-6.999006122E-2,2.626122832E-1,9.761520386E0,9.765303071E0
1.013770380E0,-6.999006122E-2,2.673979402E-1,9.756733894E0,9.760648367E0
1.015930841E0,-6.520441920E-2,2.626122832E-1,9.775876999E0,9.779621052E0
1.018084935E0,-6.999006122E-2,2.626122832E-1,9.756733894E0,9.760518434E0
1.020253880E0,-7.956135273E-2,2.626122832E-1,9.756733894E0,9.760591760E0
1.022406021E0,-6.041877344E-2,2.578266263E-1,9.780662537E0,9.784246760E0
1.024558355E0,-6.999006122E-2,2.626122832E-1,9.771091461E0,9.774870442E0
1.026722469E0,-8.434699476E-2,2.578266263E-1,9.747162819E0,9.750936981E0
1.028880449E0,-7.477571070E-2,2.578266263E-1,9.761520386E0,9.765211018E0
1.031039700E0,-6.520441920E-2,2.626122832E-1,9.780662537E0,9.784404759E0
1.033193499E0,-8.913264424E-2,2.578266263E-1,9.771091461E0,9.774898851E0
1.035343238E0,-8.913264424E-2,2.434697002E-1,9.737591743E0,9.741042813E0
1.037510922E0,-6.520441920E-2,2.817548811E-1,9.766305923E0,9.770586923E0
1.039668109E0,-7.477571070E-2,2.578266263E-1,9.780662537E0,9.784345948E0
1.041827675E0,-7.956135273E-2,2.482553422E-1,9.780662537E0,9.784136159E0
1.043981911E0,-6.999006122E-2,2.530409992E-1,9.756733894E0,9.760265603E0
1.046140044E0,-7.956135273E-2,2.386840582E-1,9.751948357E0,9.755193327E0
1.048296904E0,-8.913264424E-2,2.482553422E-1,9.761520386E0,9.765083491E0
1.050455331E0,-8.434699476E-2,2.530409992E-1,9.771091461E0,9.774731327E0
1.052611754E0,-8.434699476E-2,2.578266263E-1,9.766305923E0,9.770072690E0
1.054767913E0,-6.520441920E-2,2.482553422E-1,9.761520386E0,9.764894396E0
1.056917734E0,-7.956135273E-2,2.673979402E-1,9.780662537E0,9.784640582E0
1.059085103E0,-7.477571070E-2,2.482553422E-1,9.771091461E0,9.774530703E0
1.061241678E0,-7.477571070E-2,2.578266263E-1,9.742377281E0,9.746075162E0
1.063403188E0,-7.477571070E-2,2.578266263E-1,9.732806206E0,9.736507722E0
1.065556387E0,-7.956135273E-2,2.673979402E-1,9.761520386E0,9.765506229E0
1.067714885E0,-8.913264424E-2,2.578266263E-1,9.775876999E0,9.779682525E0
1.069871095E0,-1.034895778E-1,2.626122832E-1,9.766305923E0,9.770384163E0
1.072030000E0,-7.956135273E-2,2.673979402E-1,9.775876999E0,9.779856991E0
1.074187136E0,-7.956135273E-2,2.721835673E-1,9.751948357E0,9.756070451E0
1.076344424E0,-8.913264424E-2,2.578266263E-1,9.751948357E0,9.755763217E0
1.078500327E0,-7.956135273E-2,2.626122832E-1,9.761520386E0,9.765376360E0
1.080656477E0,-8.434699476E-2,2.626122832E-1,9.751948357E0,9.755848317E0
1.082815921E0,-7.477571070E-2,2.530409992E-1,9.775876999E0,9.779437215E0
1.084974368E0,-8.913264424E-2,2.578266263E-1,9.738189697E0,9.742009945E0
1.087131452E0,-8.913264424E-2,2.673979402E-1,9.756733894E0,9.760804402E0
1.089286970E0,-8.913264424E-2,2.673979402E-1,9.761520386E0,9.765588898E0
1.091436781E0,-7.477571070E-2,2.817548811E-1,9.742377281E0,9.746737521E0
1.093604181E0,-8.434699476E-2,2.673979402E-1,9.728020668E0,9.732060532E0
1.095760594E0,-9.391828626E-2,2.626122832E-1,9.738189697E0,9.742182735E0
1.097921219E0,-8.913264424E-2,2.626122832E-1,9.751948357E0,9.755890866E0
1.100077733E0,-8.434699476E-2,2.530409992E-1,9.751948357E0,9.755595364E0
1.102243119E0,-7.477571070E-2,2.626122832E-1,9.732806206E0,9.736635623E0
1.104390498E0,-8.973085135E-2,2.673979402E-1,9.719047546E0,9.723139333E0
1.106549139E0,-8.434699476E-2,2.626122832E-1,9.732806206E0,9.736713833E0
1.108703965E0,-7.956135273E-2,2.578266263E-1,9.742377281E0,9.746113054E0
1.110863593E0,-9.451649338E-2,2.482553422E-1,9.728618622E0,9.732244570E0
1.113017666E0,-9.391828626E-2,2.673979402E-1,9.733404160E0,9.737529401E0
1.115169156E0,-9.391828626E-2,2.721835673E-1,9.747162819E0,9.751414644E0
1.117338518E0,-9.391828626E-2,2.530409992E-1,9.756733894E0,9.760466519E0
1.119509936E0,-8.913264424E-2,2.626122832E-1,9.728618622E0,9.732570582E0
1.121665281E0,-9.451649338E-2,2.530409992E-1,9.723833084E0,9.727584128E0
1.123810595E0,-8.015955985E-2,2.721835673E-1,9.718449593E0,9.722590804E0
1.125973244E0,-6.520441920E-2,2.673979402E-1,9.742377281E0,9.746264329E0
1.128136269E0,-9.870393574E-2,2.721835673E-1,9.733404160E0,9.737709325E0
1.130292906E0,-8.434699476E-2,2.530409992E-1,9.723235130E0,9.726892904E0
1.132437153E0,-8.434699476E-2,2.578266263E-1,9.742377281E0,9.746153296E0
1.134591471E0,-7.477571070E-2,2.626122832E-1,9.728020668E0,9.731851968E0
1.136754312E0,-6.041877344E-2,2.530409992E-1,9.737591743E0,9.741066324E0
1.138926178E0,-8.015955985E-2,2.769692242E-1,9.708877563E0,9.713158140E0
1.141084595E0,-8.434699476E-2,2.673979402E-1,9.737591743E0,9.741627638E0
1.143237691E0,-7.956135273E-2,2.578266263E-1,9.732806206E0,9.736545651E0
1.145376556E0,-8.913264424E-2,2.530409992E-1,9.732806206E0,9.736503018E0
1.147536500E0,-6.041877344E-2,2.673979402E-1,9.728020668E0,9.731882562E0
1.149707358E0,-8.913264424E-2,2.578266263E-1,9.728020668E0,9.731844908E0
1.151858481E0,-7.477571070E-2,2.626122832E-1,9.728020668E0,9.731851968E0
1.154028149E0,-7.477571070E-2,2.626122832E-1,9.723235130E0,9.727068316E0
1.156176729E0,-6.520441920E-2,2.626122832E-1,9.737591743E0,9.741350512E0
1.158343833E0,-6.999006122E-2,2.578266263E-1,9.742377281E0,9.746039620E0
1.160498466E0,-8.913264424E-2,2.578266263E-1,9.728020668E0,9.731844908E0
1.162656812E0,-9.391828626E-2,2.578266263E-1,9.732806206E0,9.736673552E0
1.164810967E0,-7.477571070E-2,2.673979402E-1,9.742377281E0,9.746333062E0
1.166962579E0,-6.999006122E-2,2.578266263E-1,9.732806206E0,9.736472144E0
1.169114384E0,-7.956135273E-2,2.626122832E-1,9.728020668E0,9.731889916E0
1.171285313E0,-7.477571070E-2,2.578266263E-1,9.747162819E0,9.750858885E0
1.173442742E0,-6.041877344E-2,2.673979402E-1,9.747162819E0,9.751017132E0
1.175603449E0,-6.999006122E-2,2.673979402E-1,9.742377281E0,9.746297520E0
1.177757380E0,-6.520441920E-2,2.626122832E-1,9.742377281E0,9.746134204E0
1.179909978E0,-7.477571070E-2,2.769692242E-1,9.747162819E0,9.751383819E0
1.182052231E0,-6.999006122E-2,2.626122832E-1,9.756733894E0,9.760518434E0
1.184229579E0,-8.434699476E-2,2.673979402E-1,9.751948357E0,9.755978312E0
1.186386582E0,-7.477571070E-2,2.721835673E-1,9.737591743E0,9.741682004E0
1.188546209E0,-6.999006122E-2,2.530409992E-1,9.732806206E0,9.736346594E0
1.190684678E0,-6.041877344E-2,2.626122832E-1,9.747162819E0,9.750887070E0
1.192846838E0,-6.999006122E-2,2.769692242E-1,9.771091461E0,9.775266692E0
1.195017513E0,-6.999006122E-2,2.673979402E-1,9.737591743E0,9.741513909E0
1.197177863E0,-6.041877344E-2,2.673979402E-1,9.737591743E0,9.741449843E0
1.199331438E0,-7.956135273E-2,2.482553422E-1,9.751948357E0,9.755432203E0
1.201475542E0,-6.520441920E-2,2.578266263E-1,9.751948357E0,9.755573942E0
1.203639717E0,-7.956135273E-2,2.673979402E-1,9.761520386E0,9.765506229E0
1.205800932E0,-6.999006122E-2,2.626122832E-1,9.756733894E0,9.760518434E0
1.207950428E0,-7.477571070E-2,2.578266263E-1,9.766305923E0,9.769994748E0
1.210123401E0,-7.477571070E-2,2.673979402E-1,9.756733894E0,9.760683857E0
1.212285277E0,-9.391828626E-2,2.673979402E-1,9.756733894E0,9.760849276E0
1.214432209E0,-6.999006122E-2,2.530409992E-1,9.747162819E0,9.750697994E0
1.216591044E0,-7.477571070E-2,2.721835673E-1,9.737591743E0,9.741682004E0
1.218746460E0,-6.999006122E-2,2.673979402E-1,9.756733894E0,9.760648367E0
1.220906697E0,-6.999006122E-2,2.626122832E-1,9.751948357E0,9.755734753E0
1.223056060E0,-7.477571070E-2,2.673979402E-1,9.761520386E0,9.765468412E0
1.225189413E0,-7.956135273E-2,2.769692242E-1,9.761520386E0,9.765772996E0
1.227378225E0,-7.477571070E-2,2.578266263E-1,9.761520386E0,9.765211018E0
1.229533143E0,-8.434699476E-2,2.721835673E-1,9.771091461E0,9.775245606E0
1.231688376E0,-6.999006122E-2,2.482553422E-1,9.766305923E0,9.769711394E0
1.233843914E0,-8.913264424E-2,2.578266263E-1,9.771091461E0,9.774898851E0
1.235980348E0,-6.999006122E-2,2.721835673E-1,9.751948357E0,9.755997092E0
1.238168510E0,-7.956135273E-2,2.769692242E-1,9.766305923E0,9.770556450E0
1.240322471E0,-8.434699476E-2,2.673979402E-1,9.761520386E0,9.765546391E0
1.242484103E0,-7.477571070E-2,2.578266263E-1,9.775876999E0,9.779562213E0
1.244637769E0,-7.956135273E-2,2.530409992E-1,9.742377281E0,9.745987628E0
1.246793033E0,-8.434699476E-2,2.578266263E-1,9.756733894E0,9.760504355E0
1.248954095E0,-6.520441920E-2,2.673979402E-1,9.761520386E0,9.765399813E0
1.251109602E0,-7.956135273E-2,2.626122832E-1,9.766305923E0,9.770160009E0
1.253268172E0,-8.913264424E-2,2.530409992E-1,9.742377281E0,9.746070463E0
1.255424391E0,-6.999006122E-2,2.626122832E-1,9.747162819E0,9.750951074E0
1.257577092E0,-7.956135273E-2,2.769692242E-1,9.775876999E0,9.780123366E0
1.259717015E0,-7.956135273E-2,2.578266263E-1,9.751948357E0,9.755680465E0
1.261897883E0,-8.434699476E-2,2.673979402E-1,9.751948357E0,9.755978312E0
1.264055435E0,-7.477571070E-2,2.817548811E-1,9.751948357E0,9.756304319E0
1.266218297E0,-7.956135273E-2,2.530409992E-1,9.771091461E0,9.774691202E0
1.268369319E0,-7.956135273E-2,2.578266263E-1,9.780662537E0,9.784383692E0
1.270528693E0,-6.999006122E-2,2.626122832E-1,9.771091461E0,9.774870442E0
1.272684058E0,-7.956135273E-2,2.673979402E-1,9.756733894E0,9.760721692E0
1.274840044E0,-8.913264424E-2,2.673979402E-1,9.751948357E0,9.756020861E0
1.276988593E0,-8.434699476E-2,2.530409992E-1,9.761520386E0,9.765163819E0
1.279153175E0,-8.434699476E-2,2.530409992E-1,9.756733894E0,9.760379114E0
1.281294370E0,-6.999006122E-2,2.578266263E-1,9.766305923E0,9.769959292E0
1.283459043E0,-7.956135273E-2,2.434697002E-1,9.761520386E0,9.764880324E0
1.285616259E0,-6.999006122E-2,2.530409992E-1,9.780662537E0,9.784185608E0
1.287791186E0,-7.477571070E-2,2.673979402E-1,9.747162819E0,9.751116658E0
1.289941587E0,-7.956135273E-2,2.673979402E-1,9.742377281E0,9.746370953E0
1.292084318E0,-7.477571070E-2,2.578266263E-1,9.761520386E0,9.765211018E0
1.294258289E0,-7.477571070E-2,2.626122832E-1,9.771091461E0,9.774905880E0
1.296417154E0,-7.477571070E-2,2.482553422E-1,9.785448074E0,9.788882272E0
1.298579772E0,-8.434699476E-2,2.578266263E-1,9.775876999E0,9.779640079E0
1.300729350E0,-7.956135273E-2,2.673979402E-1,9.742377281E0,9.746370953E0
1.302878194E0,-8.913264424E-2,2.578266263E-1,9.761520386E0,9.765331507E0
1.305042501E0,-7.956135273E-2,2.673979402E-1,9.756733894E0,9.760721692E0
1.307188609E0,-7.956135273E-2,2.673979402E-1,9.737591743E0,9.741587377E0
1.309363770E0,-8.434699476E-2,2.673979402E-1,9.771091461E0,9.775113524E0
1.311512178E0,-7.477571070E-2,2.769692242E-1,9.751948357E0,9.756167286E0
1.313657604E0,-8.913264424E-2,2.626122832E-1,9.775876999E0,9.779809862E0
1.315832358E0,-8.434699476E-2,2.626122832E-1,9.756733894E0,9.760631942E0
1.317983318E0,-6.999006122E-2,2.673979402E-1,9.751948357E0,9.755864750E0
1.320153281E0,-9.391828626E-2,2.769692242E-1,9.747162819E0,9.751549396E0
1.322305656E0,-6.999006122E-2,2.578266263E-1,9.742377281E0,9.746039620E0
1.324464419E0,-6.999006122E-2,2.578266263E-1,9.751948357E0,9.755607102E0
1.326620985E0,-7.956135273E-2,2.673979402E-1,9.751948357E0,9.755938111E0
1.328769850E0,-7.477571070E-2,2.530409992E-1,9.742377281E0,9.745949735E0
1.330900546E0,-8.913264424E-2,2.578266263E-1,9.747162819E0,9.750979552E0
1.333066938E0,-7.477571070E-2,2.626122832E-1,9.771091461E0,9.774905880E0
1.335234389E0,-6.520441920E-2,2.721835673E-1,9.761520386E0,9.765532026E0
1.337398553E0,-8.434699476E-2,2.626122832E-1,9.766305923E0,9.770200152E0
1.339555770E0,-7.956135273E-2,2.578266263E-1,9.756733894E0,9.760464173E0
1.341708907E0,-7.956135273E-2,2.530409992E-1,9.747162819E0,9.750771394E0
1.343864863E0,-8.913264424E-2,2.434697002E-1,9.728020668E0,9.731475132E0
1.346013413E0,-8.434699476E-2,2.673979402E-1,9.737591743E0,9.741627638E0
1.348182725E0,-7.477571070E-2,2.626122832E-1,9.747162819E0,9.750986598E0
1.350339728E0,-1.034895778E-1,2.673979402E-1,9.756733894E0,9.760946063E0
1.352499630E0,-7.477571070E-2,2.578266263E-1,9.751948357E0,9.755642610E0
1.354655676E0,-1.034895778E-1,2.578266263E-1,9.761520386E0,9.765473102E0
1.356820115E0,-8.913264424E-2,2.482553422E-1,9.771091461E0,9.774651077E0
1.358968635E0,-7.956135273E-2,2.673979402E-1,9.747162819E0,9.751154531E0
1.361127072E0,-7.956135273E-2,2.626122832E-1,9.751948357E0,9.755808115E0
1.363281481E0,-7.477571070E-2,2.673979402E-1,9.742377281E0,9.746333062E0
1.365442065E0,-7.956135273E-2,2.482553422E-1,9.742377281E0,9.745864549E0
1.367597105E0,-7.956135273E-2,2.434697002E-1,9.761520386E0,9.764880324E0
1.369747109E0,-8.434699476E-2,2.482553422E-1,9.737591743E0,9.741120987E0
1.371913328E0,-8.913264424E-2,2.673979402E-1,9.751948357E0,9.756020861E0
1.374071186E0,-8.434699476E-2,2.578266263E-1,9.751948357E0,9.755720667E0
1.376230325E0,-7.956135273E-2,2.530409992E-1,9.713663101E0,9.717284116E0
1.378383951E0,-8.913264424E-2,2.530409992E-1,9.718449593E0,9.722151864E0
1.380532683E0,-7.956135273E-2,2.578266263E-1,9.751948357E0,9.755680465E0
1.382701619E0,-7.956135273E-2,2.482553422E-1,9.771091461E0,9.774568485E0
1.384858775E0,-6.999006122E-2,2.530409992E-1,9.732806206E0,9.736346594E0
1.387018748E0,-8.434699476E-2,2.578266263E-1,9.718449593E0,9.722234901E0
1.389170085E0,-7.956135273E-2,2.721835673E-1,9.737591743E0,9.741719913E0
1.391320608E0,-7.477571070E-2,2.673979402E-1,9.742377281E0,9.746333062E0
1.393487631E0,-7.956135273E-2,2.626122832E-1,9.732806206E0,9.736673552E0
1.395645966E0,-7.956135273E-2,2.626122832E-1,9.732806206E0,9.736673552E0
1.397805025E0,-6.999006122E-2,2.626122832E-1,9.766305923E0,9.770086756E0
1.399958151E0,-8.434699476E-2,2.673979402E-1,9.775876999E0,9.779897094E0
1.402106437E0,-8.913264424E-2,2.626122832E-1,9.728020668E0,9.731972871E0
1.404275392E0,-7.956135273E-2,2.578266263E-1,9.713663101E0,9.717409913E0
1.406430707E0,-8.434699476E-2,2.530409992E-1,9.751948357E0,9.755595364E0
1.408594516E0,-7.477571070E-2,2.578266263E-1,9.771091461E0,9.774778479E0
1.410744866E0,-8.434699476E-2,2.673979402E-1,9.766305923E0,9.770329957E0
1.412897423E0,-7.956135273E-2,2.530409992E-1,9.732806206E0,9.736420102E0
1.415061852E0,-7.956135273E-2,2.626122832E-1,9.756733894E0,9.760591760E0
1.417220686E0,-7.477571070E-2,2.578266263E-1,9.756733894E0,9.760426336E0
1.419380009E0,-7.956135273E-2,2.482553422E-1,9.742377281E0,9.745864549E0
1.421535252E0,-7.956135273E-2,2.530409992E-1,9.737591743E0,9.741203864E0
1.423691604E0,-9.391828626E-2,2.530409992E-1,9.751948357E0,9.755682813E0
1.425849899E0,-8.434699476E-2,2.530409992E-1,9.747162819E0,9.750811617E0
1.428006648E0,-7.956135273E-2,2.673979402E-1,9.747162819E0,9.751154531E0
1.430165157E0,-8.434699476E-2,2.673979402E-1,9.732806206E0,9.736844084E0
1.432324723E0,-8.434699476E-2,2.673979402E-1,9.737591743E0,9.741627638E0
1.434492906E0,-8.434699476E-2,2.673979402E-1,9.742377281E0,9.746411194E0
1.436640153E0,-8.913264424E-2,2.673979402E-1,9.747162819E0,9.751237322E0
1.438811581E0,-7.477571070E-2,2.626122832E-1,9.761520386E0,9.765338543E0
1.440964545E0,-7.956135273E-2,2.578266263E-1,9.747162819E0,9.750896759E0
1.443122912E0,-8.913264424E-2,2.721835673E-1,9.737591743E0,9.741802784E0
1.445262479E0,-7.477571070E-2,2.482553422E-1,9.737591743E0,9.741042813E0
1.447420173E0,-8.434699476E-2,2.578266263E-1,9.747162819E0,9.750936981E0
1.449594714E0,-8.973085135E-2,2.626122832E-1,9.723833084E0,9.727792488E0
1.451755867E0,-9.391828626E-2,2.626122832E-1,9.733404160E0,9.737399159E0
1.453911050E0,-7.956135273E-2,2.578266263E-1,9.742377281E0,9.746113054E0
1.456045480E0,-7.956135273E-2,2.626122832E-1,9.751948357E0,9.755808115E0
1.458194426E0,-6.999006122E-2,2.673979402E-1,9.747162819E0,9.751081134E0
1.460382425E0,-6.999006122E-2,2.482553422E-1,9.742377281E0,9.745791113E0
1.462542378E0,-7.477571070E-2,2.626122832E-1,9.747162819E0,9.750986598E0
1.464701548E0,-7.956135273E-2,2.721835673E-1,9.766305923E0,9.770421961E0
1.466837687E0,-7.956135273E-2,2.673979402E-1,9.775876999E0,9.779856991E0
1.468999655E0,-7.956135273E-2,2.530409992E-1,9.732806206E0,9.736420102E0
1.471169994E0,-8.434699476E-2,2.578266263E-1,9.742377281E0,9.746153296E0
1.473330190E0,-7.477571070E-2,2.673979402E-1,9.751948357E0,9.755900257E0
1.475486950E0,-7.477571070E-2,2.626122832E-1,9.751948357E0,9.755770260E0
1.477635804E0,-7.477571070E-2,2.482553422E-1,9.756733894E0,9.760178195E0
1.479768892E0,-7.477571070E-2,2.530409992E-1,9.747162819E0,9.750733520E0
1.481943747E0,-6.999006122E-2,2.626122832E-1,9.756733894E0,9.760518434E0
1.484110008E0,-6.999006122E-2,2.626122832E-1,9.756733894E0,9.760518434E0
1.486260246E0,-6.999006122E-2,2.673979402E-1,9.756733894E0,9.760648367E0
1.488403638E0,-6.999006122E-2,2.626122832E-1,9.751948357E0,9.755734753E0
1.490557478E0,-6.520441920E-2,2.769692242E-1,9.761520386E0,9.765666583E0
1.492717715E0,-6.999006122E-2,2.578266263E-1,9.756733894E0,9.760390846E0
1.494878005E0,-6.999006122E-2,2.673979402E-1,9.766305923E0,9.770216561E0
1.497034621E0,-8.434699476E-2,2.578266263E-1,9.761520386E0,9.765288999E0
1.499193160E0,-6.999006122E-2,2.578266263E-1,9.756733894E0,9.760390846E0
1.501348199E0,-6.520441920E-2,2.578266263E-1,9.766305923E0,9.769926181E0
1.503508753E0,-8.434699476E-2,2.673979402E-1,9.756733894E0,9.760761874E0
1.505665227E0,-7.956135273E-2,2.626122832E-1,9.766305923E0,9.770160009E0
1.507823634E0,-6.520441920E-2,2.626122832E-1,9.775876999E0,9.779621052E0
1.509979976E0,-6.520441920E-2,2.578266263E-1,9.766305923E0,9.769926181E0
1.512138383E0,-8.434699476E-2,2.578266263E-1,9.775876999E0,9.779640079E0
1.514293982E0,-6.520441920E-2,2.482553422E-1,9.761520386E0,9.764894396E0
1.516452908E0,-7.477571070E-2,2.626122832E-1,9.766305923E0,9.770122211E0
1.518609941E0,-5.084748194E-2,2.578266263E-1,9.751948357E0,9.755488547E0
1.520768581E0,-6.041877344E-2,2.673979402E-1,9.751948357E0,9.755800779E0
1.522925524E0,-6.520441920E-2,2.673979402E-1,9.780662537E0,9.784534375E0
1.525082883E0,-6.041877344E-2,2.721835673E-1,9.771091461E0,9.775068423E0
1.527239489E0,-6.520441920E-2,2.578266263E-1,9.742377281E0,9.746006427E0
1.529397438E0,-6.999006122E-2,2.578266263E-1,9.766305923E0,9.769959292E0
1.531553729E0,-6.041877344E-2,2.578266263E-1,9.761520386E0,9.765111635E0
1.533712593E0,-6.041877344E-2,2.626122832E-1,9.766305923E0,9.770022878E0
1.535868885E0,-7.477571070E-2,2.673979402E-1,9.747162819E0,9.751116658E0
1.538028145E0,-6.520441920E-2,2.673979402E-1,9.766305923E0,9.770183451E0
1.540184996E0,-5.084748194E-2,2.673979402E-1,9.775876999E0,9.779665548E0
1.542342528E0,-6.999006122E-2,2.721835673E-1,9.775876999E0,9.779915828E0
1.544497172E0,-6.999006122E-2,2.626122832E-1,9.737591743E0,9.741383720E0
1.546650767E0,-7.956135273E-2,2.817548811E-1,9.761520386E0,9.765909894E0
1.548814362E0,-6.041877344E-2,2.578266263E-1,9.789635658E0,9.793216597E0
1.550972056E0,-6.999006122E-2,2.530409992E-1,9.785448074E0,9.788969423E0
1.553132528E0,-7.956135273E-2,2.626122832E-1,9.751948357E0,9.755808115E0
1.555297079E0,-6.999006122E-2,2.721835673E-1,9.742377281E0,9.746429992E0
1.557446331E0,-7.477571070E-2,2.721835673E-1,9.780662537E0,9.784734792E0
1.559614005E0,-6.520441920E-2,2.721835673E-1,9.756733894E0,9.760747502E0
1.561767885E0,-6.520441920E-2,2.626122832E-1,9.742377281E0,9.746134204E0
1.563925996E0,-6.520441920E-2,2.626122832E-1,9.761520386E0,9.765269943E0
1.566072634E0,-8.434699476E-2,2.721835673E-1,9.756733894E0,9.760894149E0
1.568246483E0,-6.999006122E-2,2.769692242E-1,9.756733894E0,9.760915267E0
1.570397891E0,-8.434699476E-2,2.530409992E-1,9.751948357E0,9.755595364E0
1.572559522E0,-8.434699476E-2,2.721835673E-1,9.728020668E0,9.732193197E0
1.574712599E0,-6.999006122E-2,2.673979402E-1,9.761520386E0,9.765432940E0
1.576870070E0,-8.913264424E-2,2.673979402E-1,9.756733894E0,9.760804402E0
1.579023116E0,-8.434699476E-2,2.578266263E-1,9.761520386E0,9.765288999E0
1.581185775E0,-8.913264424E-2,2.578266263E-1,9.742377281E0,9.746195888E0
1.583340102E0,-8.434699476E-2,2.673979402E-1,9.737591743E0,9.741627638E0
1.585491907E0,-9.391828626E-2,2.626122832E-1,9.742377281E0,9.746368603E0
1.587657211E0,-7.956135273E-2,2.578266263E-1,9.747162819E0,9.750896759E0
1.589816046E0,-7.956135273E-2,2.673979402E-1,9.756733894E0,9.760721692E0
1.591975978E0,-7.956135273E-2,2.626122832E-1,9.747162819E0,9.751024471E0
1.594130713E0,-8.434699476E-2,2.626122832E-1,9.756733894E0,9.760631942E0
1.596287105E0,-8.434699476E-2,2.578266263E-1,9.761520386E0,9.765288999E0
1.598445268E0,-7.956135273E-2,2.530409992E-1,9.751948357E0,9.755555161E0
1.600599422E0,-7.477571070E-2,2.673979402E-1,9.761520386E0,9.765468412E0
1.602750322E0,-7.956135273E-2,2.626122832E-1,9.747162819E0,9.751024471E0
1.604916907E0,-8.913264424E-2,2.673979402E-1,9.742377281E0,9.746453785E0
1.607075671E0,-7.956135273E-2,2.769692242E-1,9.751948357E0,9.756205139E0
1.609235400E0,-8.434699476E-2,2.721835673E-1,9.747162819E0,9.751327157E0
1.611388710E0,-8.434699476E-2,2.530409992E-1,9.723235130E0,9.726892904E0
1.613540810E0,-8.434699476E-2,2.721835673E-1,9.723235130E0,9.727409712E0
1.615706042E0,-8.434699476E-2,2.721835673E-1,9.742377281E0,9.746543664E0
1.617861459E0,-8.434699476E-2,2.626122832E-1,9.737591743E0,9.741497451E0
1.620019846E0,-8.913264424E-2,2.673979402E-1,9.732806206E0,9.736886716E0
1.622168537E0,-8.913264424E-2,2.673979402E-1,9.742377281E0,9.746453785E0
1.624330687E0,-8.434699476E-2,2.626122832E-1,9.766305923E0,9.770200152E0
1.626492288E0,-9.870393574E-2,2.578266263E-1,9.733404160E0,9.737318603E0
1.628651407E0,-9.391828626E-2,2.673979402E-1,9.742377281E0,9.746498725E0
1.630807200E0,-8.434699476E-2,2.626122832E-1,9.728020668E0,9.731930217E0
1.632964326E0,-7.956135273E-2,2.817548811E-1,9.751948357E0,9.756342172E0
1.635120942E0,-8.434699476E-2,2.721835673E-1,9.761520386E0,9.765678602E0
1.637279512E0,-8.913264424E-2,2.626122832E-1,9.732806206E0,9.736756466E0
1.639435935E0,-7.956135273E-2,2.578266263E-1,9.742377281E0,9.746113054E0
1.641594626E0,-7.956135273E-2,2.626122832E-1,9.747162819E0,9.751024471E0
1.643754203E0,-8.913264424E-2,2.673979402E-1,9.732806206E0,9.736886716E0
1.645918153E0,-7.477571070E-2,2.626122832E-1,9.723235130E0,9.727068316E0
1.648065848E0,-8.434699476E-2,2.578266263E-1,9.747162819E0,9.750936981E0
1.650223859E0,-9.391828626E-2,2.578266263E-1,9.728618622E0,9.732487632E0
1.652378360E0,-7.956135273E-2,2.578266263E-1,9.742377281E0,9.746113054E0
1.654536471E0,-9.391828626E-2,2.769692242E-1,9.732806206E0,9.737199250E0
1.656685784E0,-7.477571070E-2,2.673979402E-1,9.747162819E0,9.751116658E0
1.658859715E0,-8.913264424E-2,2.721835673E-1,9.761520386E0,9.765721108E0
1.661028335E0,-8.434699476E-2,2.578266263E-1,9.737591743E0,9.741369614E0
1.663187738E0,-8.434699476E-2,2.626122832E-1,9.742377281E0,9.746281071E0
1.665341527E0,-7.477571070E-2,2.626122832E-1,9.728020668E0,9.731851968E0
1.667504206E0,-7.956135273E-2,2.626122832E-1,9.737591743E0,9.741457190E0
1.669676743E0,-9.391828626E-2,2.721835673E-1,9.732806206E0,9.737064300E0
1.671811823E0,-7.477571070E-2,2.626122832E-1,9.747162819E0,9.750986598E0
1.673967708E0,-7.477571070E-2,2.482553422E-1,9.742377281E0,9.745826656E0
1.676121201E0,-8.434699476E-2,2.578266263E-1,9.737591743E0,9.741369614E0
1.678277747E0,-8.434699476E-2,2.673979402E-1,9.728020668E0,9.732060532E0
1.680417457E0,-7.477571070E-2,2.578266263E-1,9.742377281E0,9.746075162E0
1.682603889E0,-8.434699476E-2,2.530409992E-1,9.742377281E0,9.746027870E0
1.684757158E0,-8.434699476E-2,2.530409992E-1,9.742377281E0,9.746027870E0
1.686919268E0,-7.956135273E-2,2.578266263E-1,9.747162819E0,9.750896759E0
1.689066383E0,-7.956135273E-2,2.673979402E-1,9.771091461E0,9.775073402E0
1.691214027E0,-8.434699476E-2,2.578266263E-1,9.771091461E0,9.774856384E0
1.693386310E0,-8.913264424E-2,2.578266263E-1,9.751948357E0,9.755763217E0
1.695543872E0,-7.956135273E-2,2.530409992E-1,9.747162819E0,9.750771394E0
1.697704527E0,-8.913264424E-2,2.578266263E-1,9.742377281E0,9.746195888E0
1.699857654E0,-8.434699476E-2,2.769692242E-1,9.756733894E0,9.761028770E0
1.702019683E0,-7.956135273E-2,2.626122832E-1,9.751948357E0,9.755808115E0
1.704188160E0,-6.999006122E-2,2.530409992E-1,9.732806206E0,9.736346594E0
1.706326202E0,-8.913264424E-2,2.721835673E-1,9.747162819E0,9.751369726E0
1.708487417E0,-7.956135273E-2,2.626122832E-1,9.766305923E0,9.770160009E0
1.710638367E0,-6.041877344E-2,2.626122832E-1,9.751948357E0,9.755670781E0
1.712791219E0,-7.956135273E-2,2.530409992E-1,9.751948357E0,9.755555161E0
1.714957856E0,-7.477571070E-2,2.673979402E-1,9.761520386E0,9.765468412E0
1.717105825E0,-7.477571070E-2,2.626122832E-1,9.761520386E0,9.765338543E0
1.719278545E0,-6.999006122E-2,2.578266263E-1,9.761520386E0,9.765175545E0
1.721428977E0,-7.477571070E-2,2.721835673E-1,9.766305923E0,9.770384163E0
1.723578330E0,-7.477571070E-2,2.578266263E-1,9.756733894E0,9.760426336E0
1.725734245E0,-6.041877344E-2,2.626122832E-1,9.747162819E0,9.750887070E0
1.727905489E0,-7.956135273E-2,2.721835673E-1,9.737591743E0,9.741719913E0
1.730065656E0,-7.956135273E-2,2.482553422E-1,9.747162819E0,9.750648375E0
1.732223340E0,-7.956135273E-2,2.673979402E-1,9.771091461E0,9.775073402E0
1.734368767E0,-6.999006122E-2,2.673979402E-1,9.751948357E0,9.755864750E0
1.736503929E0,-8.434699476E-2,2.673979402E-1,9.766305923E0,9.770329957E0
1.738692041E0,-7.956135273E-2,2.626122832E-1,9.756733894E0,9.760591760E0
1.740849888E0,-6.999006122E-2,2.673979402E-1,9.766305923E0,9.770216561E0
1.743014072E0,-8.434699476E-2,2.673979402E-1,9.751948357E0,9.755978312E0
1.745165236E0,-8.913264424E-2,2.721835673E-1,9.756733894E0,9.760936677E0
1.747318933E0,-6.999006122E-2,2.626122832E-1,9.771091461E0,9.774870442E0
1.749463760E0,-6.520441920E-2,2.578266263E-1,9.771091461E0,9.774709946E0
1.751623378E0,-7.956135273E-2,2.626122832E-1,9.775876999E0,9.779727313E0
1.753789068E0,-8.434699476E-2,2.578266263E-1,9.756733894E0,9.760504355E0
1.755925095E0,-8.434699476E-2,2.626122832E-1,9.771091461E0,9.774983784E0
1.758096696E0,-8.913264424E-2,2.721835673E-1,9.747162819E0,9.751369726E0
1.760253902E0,-7.477571070E-2,2.530409992E-1,9.751948357E0,9.755517306E0
1.762431372E0,-7.956135273E-2,2.530409992E-1,9.761520386E0,9.765123655E0
1.764589351E0,-7.956135273E-2,2.578266263E-1,9.766305923E0,9.770032547E0
1.766755886E0,-8.434699476E-2,2.673979402E-1,9.766305923E0,9.770329957E0
1.768882484E0,-8.434699476E-2,2.721835673E-1,9.766305923E0,9.770462103E0
1.771054125E0,-8.913264424E-2,2.673979402E-1,9.761520386E0,9.765588898E0
1.773206358E0,-7.956135273E-2,2.673979402E-1,9.771091461E0,9.775073402E0
1.775372210E0,-6.999006122E-2,2.578266263E-1,9.780662537E0,9.784310545E0
1.777522113E0,-8.434699476E-2,2.578266263E-1,9.766305923E0,9.770072690E0
1.779668374E0,-6.999006122E-2,2.578266263E-1,9.761520386E0,9.765175545E0
1.781825428E0,-8.434699476E-2,2.721835673E-1,9.737591743E0,9.741760173E0
1.783982624E0,-8.434699476E-2,2.530409992E-1,9.761520386E0,9.765163819E0
1.786141682E0,-8.434699476E-2,2.673979402E-1,9.751948357E0,9.755978312E0
1.788295430E0,-9.870393574E-2,2.721835673E-1,9.751948357E0,9.756245339E0
1.790438527E0,-7.956135273E-2,2.626122832E-1,9.756733894E0,9.760591760E0
1.792615580E0,-7.956135273E-2,2.673979402E-1,9.771091461E0,9.775073402E0
1.794771851E0,-6.999006122E-2,2.530409992E-1,9.766305923E0,9.769834172E0
1.796935110E0,-8.434699476E-2,2.626122832E-1,9.761520386E0,9.765416523E0
1.799089183E0,-7.477571070E-2,2.386840582E-1,9.751948357E0,9.755155470E0
1.801251222E0,-8.434699476E-2,2.673979402E-1,9.747162819E0,9.751194752E0
1.803402406E0,-7.477571070E-2,2.626122832E-1,9.761520386E0,9.765338543E0
1.805563254E0,-7.956135273E-2,2.578266263E-1,9.766305923E0,9.770032547E0
1.807714998E0,-9.870393574E-2,2.578266263E-1,9.751948357E0,9.755855359E0
1.809874890E0,-8.913264424E-2,2.530409992E-1,9.751948357E0,9.755637915E0
1.812030469E0,-8.434699476E-2,2.626122832E-1,9.728020668E0,9.731930217E0
1.814190117E0,-6.999006122E-2,2.721835673E-1,9.766305923E0,9.770348709E0
1.816347120E0,-8.913264424E-2,2.626122832E-1,9.756733894E0,9.760674471E0
1.818504723E0,-8.434699476E-2,2.673979402E-1,9.742377281E0,9.746411194E0
1.820661258E0,-7.956135273E-2,2.530409992E-1,9.751948357E0,9.755555161E0
1.822817824E0,-8.913264424E-2,2.673979402E-1,9.766305923E0,9.770372443E0
1.824965753E0,-7.956135273E-2,2.530409992E-1,9.771091461E0,9.774691202E0
1.827134668E0,-7.477571070E-2,2.626122832E-1,9.732806206E0,9.736635623E0
1.829290563E0,-8.434699476E-2,2.578266263E-1,9.732806206E0,9.736585933E0
1.831452153E0,-7.477571070E-2,2.578266263E-1,9.761520386E0,9.765211018E0
1.833607600E0,-8.434699476E-2,2.482553422E-1,9.766305923E0,9.769824795E0
1.835767543E0,-7.956135273E-2,2.721835673E-1,9.732806206E0,9.736936404E0
1.837920721E0,-7.477571070E-2,2.578266263E-1,9.728020668E0,9.731724004E0
1.840078842E0,-6.999006122E-2,2.673979402E-1,9.737591743E0,9.741513909E0
1.842234656E0,-6.999006122E-2,2.530409992E-1,9.761520386E0,9.765050363E0
1.844390204E0,-8.434699476E-2,2.530409992E-1,9.737591743E0,9.741244126E0
1.846535509E0,-9.391828626E-2,2.626122832E-1,9.737591743E0,9.741585026E0
1.848708991E0,-6.999006122E-2,2.769692242E-1,9.756733894E0,9.760915267E0
1.850866177E0,-7.477571070E-2,2.578266263E-1,9.751948357E0,9.755642610E0
1.853027371E0,-7.477571070E-2,2.721835673E-1,9.737591743E0,9.741682004E0
1.855182808E0,-7.956135273E-2,2.673979402E-1,9.723235130E0,9.727236661E0
1.857348946E0,-6.999006122E-2,2.626122832E-1,9.747162819E0,9.750951074E0
1.859495186E0,-8.434699476E-2,2.769692242E-1,9.751948357E0,9.756245339E0
1.861653441E0,-8.913264424E-2,2.578266263E-1,9.747162819E0,9.750979552E0
1.863804655E0,-7.477571070E-2,2.578266263E-1,9.732806206E0,9.736507722E0
1.865958902E0,-6.999006122E-2,2.673979402E-1,9.728020668E0,9.731946690E0
1.868127847E0,-6.999006122E-2,2.769692242E-1,9.751948357E0,9.756131780E0
1.870283477E0,-7.956135273E-2,2.530409992E-1,9.737591743E0,9.741203864E0
1.872439677E0,-7.477571070E-2,2.626122832E-1,9.728020668E0,9.731851968E0
1.874587372E0,-6.999006122E-2,2.673979402E-1,9.747162819E0,9.751081134E0
1.876754548E0,-6.520441920E-2,2.673979402E-1,9.747162819E0,9.751047959E0
1.878913107E0,-8.434699476E-2,2.626122832E-1,9.732806206E0,9.736713833E0
1.881071901E0,-6.999006122E-2,2.721835673E-1,9.737591743E0,9.741646445E0
1.883231060E0,-7.956135273E-2,2.578266263E-1,9.737591743E0,9.741329352E0
1.885397015E0,-8.434699476E-2,2.673979402E-1,9.742377281E0,9.746411194E0
1.887542797E0,-7.956135273E-2,2.578266263E-1,9.751948357E0,9.755680465E0
1.889699495E0,-6.999006122E-2,2.673979402E-1,9.747162819E0,9.751081134E0
1.891855614E0,-7.956135273E-2,2.626122832E-1,9.737591743E0,9.741457190E0
1.894013929E0,-7.956135273E-2,2.721835673E-1,9.732806206E0,9.736936404E0
1.896168124E0,-6.999006122E-2,2.721835673E-1,9.747162819E0,9.751213541E0
1.898311211E0,-7.956135273E-2,2.769692242E-1,9.751948357E0,9.756205139E0
1.900484724E0,-5.563312769E-2,2.530409992E-1,9.747162819E0,9.750605510E0
1.902631656E0,-7.956135273E-2,2.578266263E-1,9.761520386E0,9.765248836E0
1.904806644E0,-7.956135273E-2,2.578266263E-1,9.747162819E0,9.750896759E0
1.906958612E0,-7.477571070E-2,2.626122832E-1,9.761520386E0,9.765338543E0
1.909120264E0,-6.999006122E-2,2.769692242E-1,9.756733894E0,9.760915267E0
1.911269475E0,-8.913264424E-2,2.578266263E-1,9.761520386E0,9.765331507E0
1.913415450E0,-8.434699476E-2,2.673979402E-1,9.747162819E0,9.751194752E0
1.915588546E0,-8.434699476E-2,2.769692242E-1,9.761520386E0,9.765813157E0
1.917747330E0,-7.956135273E-2,2.721835673E-1,9.766305923E0,9.770421961E0
1.919908677E0,-8.434699476E-2,2.769692242E-1,9.756733894E0,9.761028770E0
1.922061305E0,-6.999006122E-2,2.626122832E-1,9.761520386E0,9.765303071E0
1.924218939E0,-7.956135273E-2,2.721835673E-1,9.761520386E0,9.765638440E0
1.926392880E0,-8.434699476E-2,2.578266263E-1,9.747162819E0,9.750936981E0
1.928542243E0,-7.956135273E-2,2.769692242E-1,9.766305923E0,9.770556450E0
1.930678962E0,-7.956135273E-2,2.626122832E-1,9.728020668E0,9.731889916E0
1.932857632E0,-6.520441920E-2,2.578266263E-1,9.742377281E0,9.746006427E0
1.935002510E0,-7.477571070E-2,2.817548811E-1,9.766305923E0,9.770655485E0
1.937171689E0,-7.477571070E-2,2.626122832E-1,9.756733894E0,9.760553924E0
1.939335040E0,-7.477571070E-2,2.673979402E-1,9.766305923E0,9.770252016E0
1.941494526E0,-7.477571070E-2,2.673979402E-1,9.771091461E0,9.775035622E0
1.943650216E0,-6.520441920E-2,2.578266263E-1,9.747162819E0,9.750790184E0
1.945792337E0,-7.956135273E-2,2.626122832E-1,9.766305923E0,9.770160009E0
1.947945037E0,-7.956135273E-2,2.626122832E-1,9.771091461E0,9.774943660E0
1.950101338E0,-7.956135273E-2,2.673979402E-1,9.766305923E0,9.770289814E0
1.952252502E0,-6.999006122E-2,2.721835673E-1,9.756733894E0,9.760780644E0
1.954435618E0,-8.913264424E-2,2.673979402E-1,9.751948357E0,9.756020861E0
1.956601807E0,-7.956135273E-2,2.673979402E-1,9.751948357E0,9.755938111E0
1.958744507E0,-7.477571070E-2,2.578266263E-1,9.751948357E0,9.755642610E0
1.960898977E0,-7.477571070E-2,2.578266263E-1,9.747162819E0,9.750858885E0
1.963064190E0,-7.477571070E-2,2.721835673E-1,9.742377281E0,9.746465533E0
1.965226279E0,-8.913264424E-2,2.578266263E-1,9.761520386E0,9.765331507E0
1.967382468E0,-6.999006122E-2,2.578266263E-1,9.780662537E0,9.784310545E0
1.969535585E0,-9.870393574E-2,2.769692242E-1,9.742377281E0,9.746813300E0
1.971696545E0,-7.956135273E-2,2.673979402E-1,9.751948357E0,9.755938111E0
1.973853609E0,-7.477571070E-2,2.626122832E-1,9.775876999E0,9.779689551E0
1.976016970E0,-9.870393574E-2,2.626122832E-1,9.790233612E0,9.794252491E0
1.978187910E0,-7.956135273E-2,2.530409992E-1,9.747162819E0,9.750771394E0
1.980309584E0,-8.913264424E-2,2.578266263E-1,9.766305923E0,9.770115178E0
1.982482761E0,-8.434699476E-2,2.434697002E-1,9.771091461E0,9.774488235E0
1.984634057E0,-8.434699476E-2,2.721835673E-1,9.742377281E0,9.746543664E0
1.986802422E0,-8.434699476E-2,2.673979402E-1,9.751948357E0,9.755978312E0
1.988960524E0,-7.956135273E-2,2.673979402E-1,9.742377281E0,9.746370953E0
1.991128045E0,-8.434699476E-2,2.721835673E-1,9.766305923E0,9.770462103E0
1.993256759E0,-8.913264424E-2,2.626122832E-1,9.747162819E0,9.751107263E0
1.995427546E0,-8.434699476E-2,2.626122832E-1,9.751948357E0,9.755848317E0
1.997580348E0,-8.434699476E-2,2.626122832E-1,9.737591743E0,9.741497451E0
1.999739802E0,-7.956135273E-2,2.530409992E-1,9.756733894E0,9.760338931E0
2.001862881E0,-6.999006122E-2,2.721835673E-1,9.761520386E0,9.765565152E0
2.004030392E0,-7.956135273E-2,2.482553422E-1,9.751948357E0,9.755432203E0
2.006202063E0,-7.956135273E-2,2.482553422E-1,9.742377281E0,9.745864549E0
2.008380133E0,-8.434699476E-2,2.721835673E-1,9.751948357E0,9.756110652E0
2.010529547E0,-7.477571070E-2,2.721835673E-1,9.766305923E0,9.770384163E0
2.012661781E0,-7.956135273E-2,2.626122832E-1,9.756733894E0,9.760591760E0
2.014817675E0,-8.434699476E-2,2.578266263E-1,9.747162819E0,9.750936981E0
2.016986488E0,-8.434699476E-2,2.578266263E-1,9.761520386E0,9.765288999E0
2.019148253E0,-8.913264424E-2,2.626122832E-1,9.747162819E0,9.751107263E0
2.021307198E0,-8.434699476E-2,2.530409992E-1,9.742377281E0,9.746027870E0
2.023461637E0,-7.956135273E-2,2.578266263E-1,9.751948357E0,9.755680465E0
2.025619098E0,-8.434699476E-2,2.673979402E-1,9.751948357E0,9.755978312E0
2.027775704E0,-6.999006122E-2,2.626122832E-1,9.761520386E0,9.765303071E0
2.029934650E0,-6.999006122E-2,2.530409992E-1,9.780662537E0,9.784185608E0
2.032090382E0,-8.434699476E-2,2.673979402E-1,9.751948357E0,9.755978312E0
2.034250264E0,-7.956135273E-2,2.530409992E-1,9.751948357E0,9.755555161E0
2.036409394E0,-7.956135273E-2,2.626122832E-1,9.751948357E0,9.755808115E0
2.038559652E0,-6.999006122E-2,2.721835673E-1,9.747162819E0,9.751213541E0
2.040721263E0,-7.477571070E-2,2.578266263E-1,9.761520386E0,9.765211018E0
2.042877249E0,-7.956135273E-2,2.673979402E-1,9.751948357E0,9.755938111E0
2.045033397E0,-7.956135273E-2,2.530409992E-1,9.737591743E0,9.741203864E0
2.047182476E0,-7.477571070E-2,2.673979402E-1,9.771091461E0,9.775035622E0
2.049349967E0,-8.434699476E-2,2.530409992E-1,9.761520386E0,9.765163819E0
2.051508343E0,-7.956135273E-2,2.673979402E-1,9.751948357E0,9.755938111E0
2.053667432E0,-8.434699476E-2,2.578266263E-1,9.742377281E0,9.746153296E0
2.055823469E0,-8.434699476E-2,2.578266263E-1,9.747162819E0,9.750936981E0
2.057980787E0,-7.956135273E-2,2.626122832E-1,9.771091461E0,9.774943660E0
2.060138084E0,-8.434699476E-2,2.578266263E-1,9.761520386E0,9.765288999E0
2.062294609E0,-7.477571070E-2,2.626122832E-1,9.737591743E0,9.741419280E0
2.064452701E0,-7.477571070E-2,2.578266263E-1,9.737591743E0,9.741291441E0
2.066606215E0,-7.477571070E-2,2.530409992E-1,9.732806206E0,9.736382172E0
2.068755385E0,-7.477571070E-2,2.578266263E-1,9.742377281E0,9.746075162E0
2.070924565E0,-7.477571070E-2,2.578266263E-1,9.756733894E0,9.760426336E0
2.073083063E0,-7.477571070E-2,2.626122832E-1,9.742377281E0,9.746202938E0
2.075243403E0,-8.434699476E-2,2.482553422E-1,9.756733894E0,9.760256217E0
2.077396184E0,-7.477571070E-2,2.626122832E-1,9.747162819E0,9.750986598E0
2.079548742E0,-6.520441920E-2,2.578266263E-1,9.761520386E0,9.765142417E0
2.081712377E0,-7.956135273E-2,2.626122832E-1,9.732806206E0,9.736673552E0
2.083868984E0,-8.434699476E-2,2.673979402E-1,9.756733894E0,9.760761874E0
2.086028875E0,-7.477571070E-2,2.673979402E-1,9.751948357E0,9.755900257E0
2.088183895E0,-8.434699476E-2,2.721835673E-1,9.751948357E0,9.756110652E0
2.090342567E0,-7.956135273E-2,2.721835673E-1,9.747162819E0,9.751286937E0
2.092499783E0,-7.956135273E-2,2.578266263E-1,9.756733894E0,9.760464173E0
2.094657183E0,-8.434699476E-2,2.578266263E-1,9.742377281E0,9.746153296E0
2.096813932E0,-8.434699476E-2,2.721835673E-1,9.756733894E0,9.760894149E0
2.098972949E0,-8.913264424E-2,2.578266263E-1,9.737591743E0,9.741412226E0
2.101128589E0,-8.434699476E-2,2.626122832E-1,9.723235130E0,9.727146602E0
2.103286731E0,-9.391828626E-2,2.673979402E-1,9.737591743E0,9.741715212E0
2.105442228E0,-6.041877344E-2,2.530409992E-1,9.775876999E0,9.779337977E0
2.107602079E0,-7.477571070E-2,2.673979402E-1,9.742377281E0,9.746333062E0
2.109759428E0,-8.434699476E-2,2.673979402E-1,9.737591743E0,9.741627638E0
2.111917063E0,-7.956135273E-2,2.769692242E-1,9.756733894E0,9.760988590E0
2.114073404E0,-7.477571070E-2,2.817548811E-1,9.742377281E0,9.746737521E0
2.116234873E0,-6.999006122E-2,2.626122832E-1,9.756733894E0,9.760518434E0
2.118404581E0,-6.999006122E-2,2.673979402E-1,9.756733894E0,9.760648367E0
2.120563304E0,-6.999006122E-2,2.769692242E-1,9.732806206E0,9.736997853E0
2.122718455E0,-7.477571070E-2,2.817548811E-1,9.747162819E0,9.751520919E0
2.124867636E0,-8.913264424E-2,2.769692242E-1,9.756733894E0,9.761071297E0
2.127019491E0,-8.913264424E-2,2.626122832E-1,9.737591743E0,9.741540063E0
2.129197989E0,-7.956135273E-2,2.626122832E-1,9.728020668E0,9.731889916E0
2.131370118E0,-6.999006122E-2,2.769692242E-1,9.761520386E0,9.765699709E0
2.133508485E0,-9.391828626E-2,2.721835673E-1,9.756733894E0,9.760981550E0
2.135664746E0,-7.956135273E-2,2.673979402E-1,9.756733894E0,9.760721692E0
2.137813316E0,-6.520441920E-2,2.769692242E-1,9.742377281E0,9.746531622E0
2.139975771E0,-8.913264424E-2,2.721835673E-1,9.747162819E0,9.751369726E0
2.142133243E0,-6.041877344E-2,2.673979402E-1,9.756733894E0,9.760584428E0
2.144283929E0,-8.434699476E-2,2.626122832E-1,9.747162819E0,9.751064693E0
2.146417291E0,-8.434699476E-2,2.578266263E-1,9.737591743E0,9.741369614E0
2.148605819E0,-7.956135273E-2,2.721835673E-1,9.742377281E0,9.746503424E0
2.150768844E0,-7.956135273E-2,2.673979402E-1,9.742377281E0,9.746370953E0
2.152950027E0,-7.956135273E-2,2.673979402E-1,9.751948357E0,9.755938111E0
2.155075627E0,-7.477571070E-2,2.626122832E-1,9.737591743E0,9.741419280E0
2.157228480E0,-8.913264424E-2,2.626122832E-1,9.737591743E0,9.741540063E0
2.159410507E0,-8.434699476E-2,2.530409992E-1,9.751948357E0,9.755595364E0
2.161551498E0,-7.956135273E-2,2.530409992E-1,9.771091461E0,9.774691202E0
2.163711492E0,-8.434699476E-2,2.578266263E-1,9.766305923E0,9.770072690E0
2.165858902E0,-8.913264424E-2,2.721835673E-1,9.742377281E0,9.746586254E0
2.168018938E0,-8.434699476E-2,2.721835673E-1,9.742377281E0,9.746543664E0
2.170172675E0,-6.999006122E-2,2.626122832E-1,9.737591743E0,9.741383720E0
2.172338203E0,-8.434699476E-2,2.721835673E-1,9.766305923E0,9.770462103E0
2.174495154E0,-7.956135273E-2,2.721835673E-1,9.761520386E0,9.765638440E0
2.176655179E0,-7.956135273E-2,2.578266263E-1,9.732806206E0,9.736545651E0
2.178804909E0,-7.956135273E-2,2.721835673E-1,9.747162819E0,9.751286937E0
2.180943896E0,-7.956135273E-2,2.721835673E-1,9.771091461E0,9.775205484E0
2.183121122E0,-7.956135273E-2,2.673979402E-1,9.756733894E0,9.760721692E0
2.185269692E0,-7.477571070E-2,2.578266263E-1,9.751948357E0,9.755642610E0
2.187445484E0,-8.434699476E-2,2.626122832E-1,9.747162819E0,9.751064693E0
2.189594502E0,-7.956135273E-2,2.626122832E-1,9.756733894E0,9.760591760E0
2.191743417E0,-8.434699476E-2,2.530409992E-1,9.775876999E0,9.779515083E0
2.193908833E0,-8.434699476E-2,2.673979402E-1,9.751948357E0,9.755978312E0
2.196070577E0,-8.434699476E-2,2.673979402E-1,9.766305923E0,9.770329957E0
2.198230926E0,-7.956135273E-2,2.626122832E-1,9.766305923E0,9.770160009E0
2.200384969E0,-7.477571070E-2,2.578266263E-1,9.751948357E0,9.755642610E0
2.202535441E0,-7.477571070E-2,2.673979402E-1,9.756733894E0,9.760683857E0
2.204669831E0,-7.477571070E-2,2.626122832E-1,9.747162819E0,9.750986598E0
2.206828309E0,-6.999006122E-2,2.578266263E-1,9.737591743E0,9.741255881E0
2.208987417E0,-7.477571070E-2,2.578266263E-1,9.756733894E0,9.760426336E0
2.211160615E0,-6.999006122E-2,2.626122832E-1,9.747162819E0,9.750951074E0
2.213313570E0,-7.477571070E-2,2.673979402E-1,9.761520386E0,9.765468412E0
2.215477947E0,-6.520441920E-2,2.578266263E-1,9.756733894E0,9.760357702E0
2.217636060E0,-6.999006122E-2,2.626122832E-1,9.761520386E0,9.765303071E0
2.219789950E0,-7.477571070E-2,2.578266263E-1,9.751948357E0,9.755642610E0
2.221945234E0,-9.391828626E-2,2.721835673E-1,9.756733894E0,9.760981550E0
2.224102267E0,-6.999006122E-2,2.530409992E-1,9.728020668E0,9.731562797E0
2.226260267E0,-6.999006122E-2,2.578266263E-1,9.751948357E0,9.755607102E0
2.228418806E0,-7.956135273E-2,2.673979402E-1,9.766305923E0,9.770289814E0
2.230576012E0,-7.477571070E-2,2.626122832E-1,9.790233612E0,9.794040576E0
2.232730961E0,-6.520441920E-2,2.626122832E-1,9.742377281E0,9.746134204E0
2.234880193E0,-6.999006122E-2,2.482553422E-1,9.751948357E0,9.755358839E0
2.237049372E0,-7.477571070E-2,2.721835673E-1,9.766305923E0,9.770384163E0
2.239204707E0,-7.477571070E-2,2.626122832E-1,9.751948357E0,9.755770260E0
2.241365667E0,-7.477571070E-2,2.578266263E-1,9.751948357E0,9.755642610E0
2.243519435E0,-8.913264424E-2,2.578266263E-1,9.742377281E0,9.746195888E0
2.245676113E0,-8.913264424E-2,2.626122832E-1,9.756733894E0,9.760674471E0
2.247823655E0,-7.956135273E-2,2.721835673E-1,9.756733894E0,9.760853968E0
2.249981472E0,-8.434699476E-2,2.721835673E-1,9.742377281E0,9.746543664E0
2.252138017E0,-6.520441920E-2,2.578266263E-1,9.737591743E0,9.741222672E0
2.254297645E0,-7.956135273E-2,2.578266263E-1,9.761520386E0,9.765248836E0
2.256454240E0,-8.434699476E-2,2.721835673E-1,9.756733894E0,9.760894149E0
2.258612403E0,-6.520441920E-2,2.626122832E-1,9.756733894E0,9.760485291E0
2.260769549E0,-7.956135273E-2,2.673979402E-1,9.737591743E0,9.741587377E0
2.262928464E0,-7.956135273E-2,2.673979402E-1,9.756733894E0,9.760721692E0
2.265085447E0,-6.999006122E-2,2.721835673E-1,9.766305923E0,9.770348709E0
2.267240792E0,-7.956135273E-2,2.626122832E-1,9.761520386E0,9.765376360E0
2.269392047E0,-6.999006122E-2,2.530409992E-1,9.742377281E0,9.745914192E0
2.271557840E0,-7.477571070E-2,2.626122832E-1,9.737591743E0,9.741419280E0
2.273714721E0,-6.999006122E-2,2.817548811E-1,9.771091461E0,9.775403458E0
2.275874531E0,-6.999006122E-2,2.673979402E-1,9.751948357E0,9.755864750E0
2.278029114E0,-7.477571070E-2,2.721835673E-1,9.737591743E0,9.741682004E0
2.280188060E0,-8.434699476E-2,2.673979402E-1,9.747162819E0,9.751194752E0
2.282345205E0,-7.956135273E-2,2.673979402E-1,9.747162819E0,9.751154531E0
2.284502482E0,-7.956135273E-2,2.482553422E-1,9.766305923E0,9.769784650E0
2.286658804E0,-8.913264424E-2,2.626122832E-1,9.742377281E0,9.746323662E0
2.288817028E0,-8.913264424E-2,2.721835673E-1,9.742377281E0,9.746586254E0
2.290973858E0,-7.956135273E-2,2.626122832E-1,9.756733894E0,9.760591760E0
2.293132092E0,-6.999006122E-2,2.673979402E-1,9.732806206E0,9.736730299E0
2.295288891E0,-8.913264424E-2,2.721835673E-1,9.737591743E0,9.741802784E0
2.297447268E0,-7.956135273E-2,2.578266263E-1,9.742377281E0,9.746113054E0
2.299604444E0,-7.477571070E-2,2.530409992E-1,9.751948357E0,9.755517306E0
2.301761376E0,-8.434699476E-2,2.626122832E-1,9.747162819E0,9.751064693E0
2.303918745E0,-8.434699476E-2,2.721835673E-1,9.732806206E0,9.736976684E0
2.306078393E0,-6.520441920E-2,2.626122832E-1,9.737591743E0,9.741350512E0
2.308233483E0,-7.477571070E-2,2.626122832E-1,9.737591743E0,9.741419280E0
2.310392012E0,-8.434699476E-2,2.673979402E-1,9.751948357E0,9.755978312E0
2.312547306E0,-7.477571070E-2,2.626122832E-1,9.747162819E0,9.750986598E0
2.314706863E0,-9.391828626E-2,2.721835673E-1,9.751948357E0,9.756198096E0
2.316864069E0,-7.477571070E-2,2.626122832E-1,9.756733894E0,9.760553924E0
2.319021530E0,-8.434699476E-2,2.673979402E-1,9.756733894E0,9.760761874E0
2.321177912E0,-7.956135273E-2,2.626122832E-1,9.747162819E0,9.751024471E0
2.323336004E0,-6.520441920E-2,2.673979402E-1,9.756733894E0,9.760615224E0
2.325492345E0,-9.870393574E-2,2.626122832E-1,9.751948357E0,9.755983007E0
2.327651525E0,-8.913264424E-2,2.530409992E-1,9.751948357E0,9.755637915E0
2.329807715E0,-8.913264424E-2,2.673979402E-1,9.742377281E0,9.746453785E0
2.331966814E0,-7.956135273E-2,2.626122832E-1,9.747162819E0,9.751024471E0
2.334123501E0,-7.956135273E-2,2.673979402E-1,9.742377281E0,9.746370953E0
2.336281053E0,-9.391828626E-2,2.578266263E-1,9.737591743E0,9.741457190E0
2.338437497E0,-8.434699476E-2,2.673979402E-1,9.747162819E0,9.751194752E0
2.340595527E0,-7.956135273E-2,2.673979402E-1,9.756733894E0,9.760721692E0
2.342752693E0,-7.956135273E-2,2.721835673E-1,9.751948357E0,9.756070451E0
2.344910337E0,-6.999006122E-2,2.530409992E-1,9.737591743E0,9.741130392E0
2.347064919E0,-7.477571070E-2,2.626122832E-1,9.732806206E0,9.736635623E0
2.349225889E0,-7.477571070E-2,2.673979402E-1,9.737591743E0,9.741549468E0
2.351383105E0,-6.520441920E-2,2.626122832E-1,9.756733894E0,9.760485291E0
2.353540526E0,-6.520441920E-2,2.578266263E-1,9.742377281E0,9.746006427E0
2.355695515E0,-1.034895778E-1,2.578266263E-1,9.742377281E0,9.746337761E0
2.357860178E0,-6.520441920E-2,2.578266263E-1,9.747162819E0,9.750790184E0
2.360012411E0,-7.956135273E-2,2.673979402E-1,9.751948357E0,9.755938111E0
2.362171855E0,-8.434699476E-2,2.530409992E-1,9.747162819E0,9.750811617E0
2.364325481E0,-6.520441920E-2,2.673979402E-1,9.742377281E0,9.746264329E0
2.366484060E0,-9.391828626E-2,2.626122832E-1,9.747162819E0,9.751152182E0
2.368640137E0,-8.913264424E-2,2.673979402E-1,9.751948357E0,9.756020861E0
2.370812165E0,-8.434699476E-2,2.673979402E-1,9.756733894E0,9.760761874E0
2.372968924E0,-6.520441920E-2,2.626122832E-1,9.761520386E0,9.765269943E0
2.375128979E0,-7.956135273E-2,2.626122832E-1,9.751948357E0,9.755808115E0
2.377281150E0,-8.913264424E-2,2.626122832E-1,9.756733894E0,9.760674471E0
2.379436820E0,-6.999006122E-2,2.626122832E-1,9.751948357E0,9.755734753E0
2.381585411E0,-6.520441920E-2,2.626122832E-1,9.747162819E0,9.750917898E0
2.383752292E0,-7.956135273E-2,2.673979402E-1,9.747162819E0,9.751154531E0
2.385901909E0,-7.956135273E-2,2.626122832E-1,9.771091461E0,9.774943660E0
2.388073490E0,-7.956135273E-2,2.530409992E-1,9.761520386E0,9.765123655E0
2.390231795E0,-7.956135273E-2,2.673979402E-1,9.756733894E0,9.760721692E0
2.392386488E0,-7.477571070E-2,2.578266263E-1,9.751948357E0,9.755642610E0
2.394540613E0,-7.477571070E-2,2.673979402E-1,9.747162819E0,9.751116658E0
2.396697635E0,-9.870393574E-2,2.626122832E-1,9.766305923E0,9.770334645E0
2.398855534E0,-8.434699476E-2,2.721835673E-1,9.785448074E0,9.789596127E0
2.401011663E0,-7.477571070E-2,2.673979402E-1,9.766305923E0,9.770252016E0
2.403159307E0,-8.913264424E-2,2.721835673E-1,9.751948357E0,9.756153201E0
2.405320745E0,-8.434699476E-2,2.626122832E-1,9.751948357E0,9.755848317E0
2.407485245E0,-6.999006122E-2,2.673979402E-1,9.761520386E0,9.765432940E0
2.409646002E0,-7.956135273E-2,2.769692242E-1,9.742377281E0,9.746638243E0
2.411802253E0,-8.913264424E-2,2.769692242E-1,9.742377281E0,9.746721073E0
2.413960588E0,-7.477571070E-2,2.626122832E-1,9.751948357E0,9.755770260E0
2.416122687E0,-7.956135273E-2,2.673979402E-1,9.756733894E0,9.760721692E0
2.418273749E0,-9.391828626E-2,2.578266263E-1,9.756733894E0,9.760591760E0
2.420431037E0,-7.477571070E-2,2.530409992E-1,9.732806206E0,9.736382172E0
2.422582334E0,-6.999006122E-2,2.578266263E-1,9.756733894E0,9.760390846E0
2.424728096E0,-7.477571070E-2,2.626122832E-1,9.766305923E0,9.770122211E0
2.426903054E0,-6.999006122E-2,2.578266263E-1,9.742377281E0,9.746039620E0
2.429059701E0,-7.956135273E-2,2.673979402E-1,9.737591743E0,9.741587377E0
2.431222380E0,-7.477571070E-2,2.673979402E-1,9.751948357E0,9.755900257E0
2.433371672E0,-7.956135273E-2,2.721835673E-1,9.747162819E0,9.751286937E0
2.435521686E0,-6.999006122E-2,2.626122832E-1,9.756733894E0,9.760518434E0
2.437690704E0,-8.434699476E-2,2.673979402E-1,9.747162819E0,9.751194752E0
2.439847910E0,-8.434699476E-2,2.721835673E-1,9.747162819E0,9.751327157E0
2.442007730E0,-8.434699476E-2,2.817548811E-1,9.766305923E0,9.770733423E0
2.444163604E0,-7.477571070E-2,2.721835673E-1,9.751948357E0,9.756032598E0
2.446319122E0,-8.913264424E-2,2.721835673E-1,9.766305923E0,9.770504588E0
2.448477651E0,-7.956135273E-2,2.673979402E-1,9.761520386E0,9.765506229E0
2.450633770E0,-7.956135273E-2,2.578266263E-1,9.766305923E0,9.770032547E0
2.452792909E0,-7.956135273E-2,2.721835673E-1,9.751948357E0,9.756070451E0
2.454952628E0,-7.956135273E-2,2.673979402E-1,9.742377281E0,9.746370953E0
2.457117841E0,-7.477571070E-2,2.578266263E-1,9.751948357E0,9.755642610E0
2.459263948E0,-7.477571070E-2,2.530409992E-1,9.742377281E0,9.745949735E0
2.461422203E0,-6.999006122E-2,2.721835673E-1,9.751948357E0,9.755997092E0
2.463576174E0,-8.434699476E-2,2.673979402E-1,9.742377281E0,9.746411194E0
2.465737104E0,-7.477571070E-2,2.626122832E-1,9.771091461E0,9.774905880E0
2.467893669E0,-8.434699476E-2,2.530409992E-1,9.751948357E0,9.755595364E0
2.470055972E0,-9.391828626E-2,2.673979402E-1,9.766305923E0,9.770417273E0
2.472226515E0,-8.434699476E-2,2.626122832E-1,9.756733894E0,9.760631942E0
2.474383223E0,-7.477571070E-2,2.578266263E-1,9.771091461E0,9.774778479E0
2.476539616E0,-8.434699476E-2,2.817548811E-1,9.761520386E0,9.765950055E0
2.478696457E0,-8.434699476E-2,2.721835673E-1,9.737591743E0,9.741760173E0
2.480859095E0,-8.434699476E-2,2.673979402E-1,9.761520386E0,9.765546391E0
2.483009099E0,-7.956135273E-2,2.578266263E-1,9.747162819E0,9.750896759E0
2.485161840E0,-7.956135273E-2,2.626122832E-1,9.747162819E0,9.751024471E0
2.487323288E0,-9.391828626E-2,2.530409992E-1,9.751948357E0,9.755682813E0
2.489482132E0,-7.477571070E-2,2.578266263E-1,9.747162819E0,9.750858885E0
2.491636959E0,-7.956135273E-2,2.721835673E-1,9.747162819E0,9.751286937E0
2.493783138E0,-8.434699476E-2,2.673979402E-1,9.747162819E0,9.751194752E0
2.495954271E0,-7.477571070E-2,2.626122832E-1,9.751948357E0,9.755770260E0
2.498111407E0,-8.913264424E-2,2.626122832E-1,9.751948357E0,9.755890866E0
2.500269366E0,-7.956135273E-2,2.578266263E-1,9.747162819E0,9.750896759E0
2.502412910E0,-7.956135273E-2,2.673979402E-1,9.751948357E0,9.755938111E0
2.504581419E0,-7.956135273E-2,2.626122832E-1,9.747162819E0,9.751024471E0
2.506725869E0,-9.391828626E-2,2.721835673E-1,9.742377281E0,9.746631194E0
2.508880278E0,-7.956135273E-2,2.721835673E-1,9.771091461E0,9.775205484E0
2.511031533E0,-7.477571070E-2,2.721835673E-1,9.766305923E0,9.770384163E0
2.513191629E0,-8.434699476E-2,2.721835673E-1,9.751948357E0,9.756110652E0
2.515346689E0,-7.477571070E-2,2.673979402E-1,9.732806206E0,9.736765875E0
2.517517801E0,-7.477571070E-2,2.578266263E-1,9.761520386E0,9.765211018E0
2.519674519E0,-7.477571070E-2,2.673979402E-1,9.756733894E0,9.760683857E0
2.521831634E0,-7.956135273E-2,2.769692242E-1,9.751948357E0,9.756205139E0
2.523981547E0,-8.434699476E-2,2.673979402E-1,9.742377281E0,9.746411194E0
2.526145640E0,-9.391828626E-2,2.530409992E-1,9.751948357E0,9.755682813E0
2.528302236E0,-8.434699476E-2,2.530409992E-1,9.756733894E0,9.760379114E0
2.530462779E0,-7.956135273E-2,2.482553422E-1,9.766305923E0,9.769784650E0
2.532616772E0,-8.913264424E-2,2.578266263E-1,9.747162819E0,9.750979552E0
2.534775331E0,-8.434699476E-2,2.769692242E-1,9.737591743E0,9.741895058E0
2.536931682E0,-7.956135273E-2,2.578266263E-1,9.747162819E0,9.750896759E0
2.539090537E0,-6.999006122E-2,2.626122832E-1,9.766305923E0,9.770086756E0
2.541247641E0,-6.999006122E-2,2.673979402E-1,9.761520386E0,9.765432940E0
2.543405103E0,-7.956135273E-2,2.578266263E-1,9.737591743E0,9.741329352E0
2.545561576E0,-8.434699476E-2,2.578266263E-1,9.766305923E0,9.770072690E0
2.547719922E0,-8.434699476E-2,2.673979402E-1,9.756733894E0,9.760761874E0
2.549876457E0,-8.434699476E-2,2.482553422E-1,9.756733894E0,9.760256217E0
2.552034946E0,-6.999006122E-2,2.769692242E-1,9.756733894E0,9.760915267E0
2.554191329E0,-8.434699476E-2,2.578266263E-1,9.756733894E0,9.760504355E0
2.556347528E0,-8.434699476E-2,2.578266263E-1,9.751948357E0,9.755720667E0
2.558496953E0,-7.477571070E-2,2.530409992E-1,9.766305923E0,9.769869628E0
2.560664616E0,-6.999006122E-2,2.578266263E-1,9.751948357E0,9.755607102E0
2.562821090E0,-7.477571070E-2,2.578266263E-1,9.751948357E0,9.755642610E0
2.564981816E0,-7.477571070E-2,2.482553422E-1,9.756733894E0,9.760178195E0
2.567133489E0,-6.999006122E-2,2.578266263E-1,9.766305923E0,9.769959292E0
2.569284663E0,-7.477571070E-2,2.530409992E-1,9.742377281E0,9.745949735E0
2.571451107E0,-7.477571070E-2,2.530409992E-1,9.742377281E0,9.745949735E0
2.573609645E0,-7.956135273E-2,2.530409992E-1,9.747162819E0,9.750771394E0
2.575769151E0,-8.913264424E-2,2.673979402E-1,9.780662537E0,9.784723090E0
2.577924017E0,-8.434699476E-2,2.578266263E-1,9.771091461E0,9.774856384E0
2.580079963E0,-7.956135273E-2,2.578266263E-1,9.751948357E0,9.755680465E0
2.582239987E0,-8.434699476E-2,2.578266263E-1,9.751948357E0,9.755720667E0
2.584395475E0,-8.434699476E-2,2.626122832E-1,9.756733894E0,9.760631942E0
2.586554227E0,-7.477571070E-2,2.673979402E-1,9.756733894E0,9.760683857E0
2.588707935E0,-7.477571070E-2,2.673979402E-1,9.756733894E0,9.760683857E0
2.590860268E0,-7.477571070E-2,2.673979402E-1,9.732806206E0,9.736765875E0
2.593026447E0,-8.434699476E-2,2.626122832E-1,9.747162819E0,9.751064693E0
2.595183775E0,-7.477571070E-2,2.626122832E-1,9.747162819E0,9.750986598E0
2.597342376E0,-7.956135273E-2,2.626122832E-1,9.780662537E0,9.784510968E0
2.599498747E0,-7.956135273E-2,2.626122832E-1,9.766305923E0,9.770160009E0
2.601656799E0,-8.434699476E-2,2.482553422E-1,9.742377281E0,9.745904792E0
2.603813628E0,-9.391828626E-2,2.578266263E-1,9.728020668E0,9.731889916E0
2.605969747E0,-6.999006122E-2,2.721835673E-1,9.756733894E0,9.760780644E0
2.608128194E0,-8.434699476E-2,2.626122832E-1,9.756733894E0,9.760631942E0
2.610287466E0,-8.913264424E-2,2.578266263E-1,9.761520386E0,9.765331507E0
2.612449383E0,-7.956135273E-2,2.673979402E-1,9.761520386E0,9.765506229E0
2.614603130E0,-8.434699476E-2,2.626122832E-1,9.756733894E0,9.760631942E0
2.616774079E0,-6.999006122E-2,2.721835673E-1,9.747162819E0,9.751213541E0
2.618929557E0,-6.520441920E-2,2.721835673E-1,9.747162819E0,9.751180366E0
2.621089327E0,-9.391828626E-2,2.673979402E-1,9.747162819E0,9.751282240E0
2.623242759E0,-8.434699476E-2,2.673979402E-1,9.761520386E0,9.765546391E0
2.625401166E0,-6.999006122E-2,2.626122832E-1,9.761520386E0,9.765303071E0
2.627558749E0,-7.956135273E-2,2.482553422E-1,9.747162819E0,9.750648375E0
2.629708601E0,-8.434699476E-2,2.578266263E-1,9.751948357E0,9.755720667E0
2.631843692E0,-8.434699476E-2,2.721835673E-1,9.751948357E0,9.756110652E0
2.634027215E0,-8.434699476E-2,2.721835673E-1,9.761520386E0,9.765678602E0
2.636171166E0,-8.913264424E-2,2.721835673E-1,9.742377281E0,9.746586254E0
2.638340021E0,-7.956135273E-2,2.578266263E-1,9.751948357E0,9.755680465E0
2.640502231E0,-8.913264424E-2,2.673979402E-1,9.747162819E0,9.751237322E0
2.642664372E0,-7.956135273E-2,2.769692242E-1,9.766305923E0,9.770556450E0
2.644826492E0,-7.956135273E-2,2.721835673E-1,9.742377281E0,9.746503424E0
2.646992427E0,-7.956135273E-2,2.673979402E-1,9.742377281E0,9.746370953E0
2.649119227E0,-7.477571070E-2,2.673979402E-1,9.761520386E0,9.765468412E0
2.651291032E0,-8.913264424E-2,2.673979402E-1,9.751948357E0,9.756020861E0
2.653446438E0,-8.434699476E-2,2.626122832E-1,9.747162819E0,9.751064693E0
2.655623368E0,-8.913264424E-2,2.626122832E-1,9.747162819E0,9.751107263E0
2.657745245E0,-7.956135273E-2,2.578266263E-1,9.732806206E0,9.736545651E0
2.659907721E0,-7.477571070E-2,2.721835673E-1,9.756733894E0,9.760816133E0
2.662073360E0,-7.477571070E-2,2.721835673E-1,9.742377281E0,9.746465533E0
2.664238400E0,-7.956135273E-2,2.673979402E-1,9.761520386E0,9.765506229E0
2.666394753E0,-7.956135273E-2,2.578266263E-1,9.751948357E0,9.755680465E0
2.668549589E0,-7.956135273E-2,2.626122832E-1,9.766305923E0,9.770160009E0
2.670706755E0,-7.956135273E-2,2.769692242E-1,9.747162819E0,9.751421690E0
2.672864744E0,-7.477571070E-2,2.626122832E-1,9.751948357E0,9.755770260E0
2.675021331E0,-7.477571070E-2,2.530409992E-1,9.737591743E0,9.741165953E0
2.677177051E0,-8.434699476E-2,2.769692242E-1,9.742377281E0,9.746678483E0
2.679326211E0,-7.477571070E-2,2.721835673E-1,9.771091461E0,9.775167704E0
2.681488087E0,-8.913264424E-2,2.673979402E-1,9.766305923E0,9.770372443E0
2.683637868E0,-7.477571070E-2,2.673979402E-1,9.756733894E0,9.760683857E0
2.685811686E0,-6.041877344E-2,2.721835673E-1,9.747162819E0,9.751149539E0
2.687967926E0,-8.434699476E-2,2.626122832E-1,9.756733894E0,9.760631942E0
2.690132873E0,-7.477571070E-2,2.626122832E-1,9.766305923E0,9.770122211E0
2.692281475E0,-7.477571070E-2,2.578266263E-1,9.751948357E0,9.755642610E0
2.694440115E0,-7.477571070E-2,2.626122832E-1,9.761520386E0,9.765338543E0
2.696595826E0,-7.956135273E-2,2.817548811E-1,9.756733894E0,9.761125555E0
2.698753847E0,-8.434699476E-2,2.626122832E-1,9.756733894E0,9.760631942E0
2.700908235E0,-7.956135273E-2,2.673979402E-1,9.761520386E0,9.765506229E0
2.703059114E0,-7.956135273E-2,2.769692242E-1,9.756733894E0,9.760988590E0
2.705223075E0,-7.956135273E-2,2.769692242E-1,9.761520386E0,9.765772996E0
2.707388196E0,-8.913264424E-2,2.626122832E-1,9.775876999E0,9.779809862E0
2.709542513E0,-7.956135273E-2,2.626122832E-1,9.771091461E0,9.774943660E0
2.711699944E0,-8.913264424E-2,2.530409992E-1,9.742377281E0,9.746070463E0
2.713855004E0,-8.434699476E-2,2.673979402E-1,9.756733894E0,9.760761874E0
2.716013594E0,-8.913264424E-2,2.673979402E-1,9.785448074E0,9.789506642E0
2.718170169E0,-8.434699476E-2,2.626122832E-1,9.756733894E0,9.760631942E0
2.720329380E0,-7.956135273E-2,2.673979402E-1,9.737591743E0,9.741587377E0
2.722478234E0,-6.041877344E-2,2.673979402E-1,9.737591743E0,9.741449843E0
2.724616470E0,-7.956135273E-2,2.578266263E-1,9.771091461E0,9.774816260E0
2.726799789E0,-7.956135273E-2,2.530409992E-1,9.756733894E0,9.760338931E0
2.728953100E0,-7.956135273E-2,2.626122832E-1,9.747162819E0,9.751024471E0
2.731100673E0,-7.956135273E-2,2.673979402E-1,9.756733894E0,9.760721692E0
2.733272873E0,-8.434699476E-2,2.626122832E-1,9.756733894E0,9.760631942E0
2.735429317E0,-8.913264424E-2,2.721835673E-1,9.747162819E0,9.751369726E0
2.737593197E0,-7.956135273E-2,2.626122832E-1,9.747162819E0,9.751024471E0
2.739740068E0,-8.434699476E-2,2.673979402E-1,9.761520386E0,9.765546391E0
2.741885352E0,-7.477571070E-2,2.673979402E-1,9.756733894E0,9.760683857E0
2.744058020E0,-6.999006122E-2,2.673979402E-1,9.756733894E0,9.760648367E0
2.746205685E0,-7.477571070E-2,2.673979402E-1,9.742377281E0,9.746333062E0
2.748350705E0,-7.956135273E-2,2.817548811E-1,9.751948357E0,9.756342172E0
2.750533272E0,-8.913264424E-2,2.673979402E-1,9.751948357E0,9.756020861E0
2.752690438E0,-8.913264424E-2,2.673979402E-1,9.737591743E0,9.741670249E0
2.754851489E0,-7.956135273E-2,2.626122832E-1,9.747162819E0,9.751024471E0
2.756986184E0,-8.434699476E-2,2.721835673E-1,9.751948357E0,9.756110652E0
2.759139617E0,-8.434699476E-2,2.578266263E-1,9.756733894E0,9.760504355E0
2.761302682E0,-8.434699476E-2,2.673979402E-1,9.742377281E0,9.746411194E0
2.763464935E0,-7.956135273E-2,2.673979402E-1,9.751948357E0,9.755938111E0
2.765625325E0,-7.477571070E-2,2.673979402E-1,9.785448074E0,9.789386451E0
2.767786031E0,-7.477571070E-2,2.673979402E-1,9.756733894E0,9.760683857E0
2.769941234E0,-7.956135273E-2,2.578266263E-1,9.732806206E0,9.736545651E0
2.772110454E0,-8.913264424E-2,2.673979402E-1,9.732806206E0,9.736886716E0
2.774265310E0,-8.434699476E-2,2.721835673E-1,9.751948357E0,9.756110652E0
2.776424541E0,-6.520441920E-2,2.721835673E-1,9.751948357E0,9.755963933E0
2.778574932E0,-6.520441920E-2,2.530409992E-1,9.723235130E0,9.726745744E0
2.780720653E0,-8.434699476E-2,2.721835673E-1,9.747162819E0,9.751327157E0
2.782881512E0,-7.956135273E-2,2.626122832E-1,9.785448074E0,9.789294624E0
2.785051963E0,-7.477571070E-2,2.578266263E-1,9.766305923E0,9.769994748E0
2.787211794E0,-7.956135273E-2,2.578266263E-1,9.737591743E0,9.741329352E0
2.789374005E0,-7.477571070E-2,2.578266263E-1,9.756733894E0,9.760426336E0
2.791537285E0,-7.477571070E-2,2.578266263E-1,9.775876999E0,9.779562213E0
2.793685052E0,-6.999006122E-2,2.673979402E-1,9.756733894E0,9.760648367E0
2.795838117E0,-9.391828626E-2,2.530409992E-1,9.751948357E0,9.755682813E0
2.797993289E0,-6.999006122E-2,2.530409992E-1,9.751948357E0,9.755481798E0
2.800153080E0,-6.999006122E-2,2.626122832E-1,9.766305923E0,9.770086756E0
2.802307693E0,-6.999006122E-2,2.769692242E-1,9.761520386E0,9.765699709E0
2.804454524E0,-6.999006122E-2,2.721835673E-1,9.751948357E0,9.755997092E0
2.806619848E0,-7.956135273E-2,2.673979402E-1,9.747162819E0,9.751154531E0
2.808756190E0,-8.434699476E-2,2.673979402E-1,9.751948357E0,9.755978312E0
2.810926936E0,-8.434699476E-2,2.673979402E-1,9.766305923E0,9.770329957E0
2.813075750E0,-6.999006122E-2,2.578266263E-1,9.756733894E0,9.760390846E0
2.815245733E0,-7.477571070E-2,2.626122832E-1,9.742377281E0,9.746202938E0
2.817400355E0,-6.520441920E-2,2.721835673E-1,9.756733894E0,9.760747502E0
2.819559027E0,-8.434699476E-2,2.578266263E-1,9.775876999E0,9.779640079E0
2.821713701E0,-7.956135273E-2,2.626122832E-1,9.751948357E0,9.755808115E0
2.823870643E0,-7.956135273E-2,2.578266263E-1,9.756733894E0,9.760464173E0
2.826028978E0,-7.477571070E-2,2.673979402E-1,9.761520386E0,9.765468412E0
2.828188473E0,-7.477571070E-2,2.721835673E-1,9.747162819E0,9.751249065E0
2.830348600E0,-8.913264424E-2,2.578266263E-1,9.751948357E0,9.755763217E0
2.832504077E0,-7.956135273E-2,2.578266263E-1,9.737591743E0,9.741329352E0
2.834665922E0,-7.956135273E-2,2.530409992E-1,9.742377281E0,9.745987628E0
2.836816293E0,-7.956135273E-2,2.578266263E-1,9.747162819E0,9.750896759E0
2.838973682E0,-8.434699476E-2,2.626122832E-1,9.756733894E0,9.760631942E0
2.841130248E0,-8.434699476E-2,2.626122832E-1,9.747162819E0,9.751064693E0
2.843287210E0,-8.913264424E-2,2.578266263E-1,9.732806206E0,9.736628566E0
2.845441771E0,-6.520441920E-2,2.673979402E-1,9.737591743E0,9.741480700E0
2.847603566E0,-8.434699476E-2,2.578266263E-1,9.742377281E0,9.746153296E0
2.849762177E0,-6.520441920E-2,2.578266263E-1,9.761520386E0,9.765142417E0
2.851920715E0,-8.434699476E-2,2.626122832E-1,9.747162819E0,9.751064693E0
2.854076670E0,-7.477571070E-2,2.530409992E-1,9.742377281E0,9.745949735E0
2.856233379E0,-6.999006122E-2,2.482553422E-1,9.751948357E0,9.755358839E0
2.858392528E0,-7.956135273E-2,2.673979402E-1,9.761520386E0,9.765506229E0
2.860548097E0,-8.434699476E-2,2.673979402E-1,9.766305923E0,9.770329957E0
2.862706585E0,-6.999006122E-2,2.721835673E-1,9.761520386E0,9.765565152E0
2.864862652E0,-8.434699476E-2,2.482553422E-1,9.761520386E0,9.765040982E0
2.867019584E0,-7.477571070E-2,2.626122832E-1,9.747162819E0,9.750986598E0
2.869170463E0,-8.434699476E-2,2.578266263E-1,9.756733894E0,9.760504355E0
2.871336286E0,-7.477571070E-2,2.673979402E-1,9.771091461E0,9.775035622E0
2.873492679E0,-8.434699476E-2,2.865405083E-1,9.747162819E0,9.751738455E0
2.875652947E0,-8.434699476E-2,2.482553422E-1,9.761520386E0,9.765040982E0
2.877805555E0,-7.956135273E-2,2.530409992E-1,9.761520386E0,9.765123655E0
2.879957889E0,-7.956135273E-2,2.578266263E-1,9.747162819E0,9.750896759E0
2.882122552E0,-8.913264424E-2,2.530409992E-1,9.756733894E0,9.760421644E0
2.884281234E0,-8.913264424E-2,2.530409992E-1,9.747162819E0,9.750854188E0
2.886439610E0,-7.477571070E-2,2.578266263E-1,9.732806206E0,9.736507722E0
2.888592107E0,-6.520441920E-2,2.578266263E-1,9.756733894E0,9.760357702E0
2.890755091E0,-6.999006122E-2,2.626122832E-1,9.751948357E0,9.755734753E0
2.892910415E0,-7.956135273E-2,2.386840582E-1,9.751948357E0,9.755193327E0
2.895068151E0,-8.434699476E-2,2.530409992E-1,9.747162819E0,9.750811617E0
2.897224747E0,-7.956135273E-2,2.530409992E-1,9.751948357E0,9.755555161E0
2.899381984E0,-6.999006122E-2,2.578266263E-1,9.742377281E0,9.746039620E0
2.901540635E0,-6.520441920E-2,2.530409992E-1,9.728020668E0,9.731529555E0
2.903698483E0,-7.477571070E-2,2.721835673E-1,9.747162819E0,9.751249065E0
2.905857225E0,-7.956135273E-2,2.626122832E-1,9.751948357E0,9.755808115E0
2.908015174E0,-7.956135273E-2,2.530409992E-1,9.761520386E0,9.765123655E0
2.910186369E0,-8.434699476E-2,2.721835673E-1,9.751948357E0,9.756110652E0
2.912336729E0,-6.520441920E-2,2.434697002E-1,9.756733894E0,9.759989006E0
2.914477608E0,-7.477571070E-2,2.626122832E-1,9.747162819E0,9.750986598E0
2.916654569E0,-7.477571070E-2,2.530409992E-1,9.756733894E0,9.760301094E0
2.918813709E0,-6.999006122E-2,2.626122832E-1,9.742377281E0,9.746167396E0
2.920976714E0,-7.956135273E-2,2.578266263E-1,9.732806206E0,9.736545651E0
2.923124938E0,-7.956135273E-2,2.578266263E-1,9.751948357E0,9.755680465E0
2.925269297E0,-6.999006122E-2,2.578266263E-1,9.775876999E0,9.779526792E0
2.927430836E0,-7.477571070E-2,2.482553422E-1,9.747162819E0,9.750610501E0
2.929599670E0,-7.956135273E-2,2.626122832E-1,9.742377281E0,9.746240830E0
2.931760966E0,-7.477571070E-2,2.578266263E-1,9.761520386E0,9.765211018E0
2.933916270E0,-8.434699476E-2,2.578266263E-1,9.766305923E0,9.770072690E0
2.936067210E0,-7.477571070E-2,2.673979402E-1,9.756733894E0,9.760683857E0
2.938230561E0,-7.956135273E-2,2.769692242E-1,9.737591743E0,9.741854799E0
2.940387503E0,-6.520441920E-2,2.673979402E-1,9.756733894E0,9.760615224E0
2.942545381E0,-8.434699476E-2,2.626122832E-1,9.761520386E0,9.765416523E0
2.944702058E0,-7.477571070E-2,2.721835673E-1,9.771091461E0,9.775167704E0
2.946858736E0,-8.434699476E-2,2.769692242E-1,9.751948357E0,9.756245339E0
2.949017885E0,-7.956135273E-2,2.530409992E-1,9.761520386E0,9.765123655E0
2.951174644E0,-8.913264424E-2,2.673979402E-1,9.766305923E0,9.770372443E0
2.953332543E0,-7.956135273E-2,2.673979402E-1,9.775876999E0,9.779856991E0
2.955486199E0,-8.434699476E-2,2.673979402E-1,9.766305923E0,9.770329957E0
2.957633976E0,-7.956135273E-2,2.865405083E-1,9.737591743E0,9.742131617E0
2.959803999E0,-7.956135273E-2,2.626122832E-1,9.751948357E0,9.755808115E0
2.961961694E0,-7.477571070E-2,2.626122832E-1,9.732806206E0,9.736635623E0
2.964127110E0,-8.434699476E-2,2.578266263E-1,9.756733894E0,9.760504355E0
2.966307164E0,-7.477571070E-2,2.626122832E-1,9.751948357E0,9.755770260E0
2.968434296E0,-6.999006122E-2,2.626122832E-1,9.737591743E0,9.741383720E0
2.970605037E0,-6.999006122E-2,2.626122832E-1,9.751948357E0,9.755734753E0
2.972762313E0,-6.520441920E-2,2.673979402E-1,9.751948357E0,9.755831591E0
2.974914057E0,-7.477571070E-2,2.721835673E-1,9.747162819E0,9.751249065E0
2.977059830E0,-7.956135273E-2,2.673979402E-1,9.747162819E0,9.751154531E0
2.979202155E0,-7.477571070E-2,2.673979402E-1,9.771091461E0,9.775035622E0
2.981350867E0,-7.477571070E-2,2.769692242E-1,9.761520386E0,9.765735180E0
2.983533128E0,-7.956135273E-2,2.721835673E-1,9.761520386E0,9.765638440E0
2.985683264E0,-7.956135273E-2,2.673979402E-1,9.742377281E0,9.746370953E0
2.987858466E0,-6.041877344E-2,2.578266263E-1,9.761520386E0,9.765111635E0
2.990002937E0,-7.477571070E-2,2.721835673E-1,9.756733894E0,9.760816133E0
2.992145760E0,-7.477571070E-2,2.769692242E-1,9.742377281E0,9.746600353E0
2.994323159E0,-8.434699476E-2,2.673979402E-1,9.766305923E0,9.770329957E0
2.996481759E0,-7.956135273E-2,2.626122832E-1,9.747162819E0,9.751024471E0
2.998643471E0,-7.477571070E-2,2.626122832E-1,9.756733894E0,9.760553924E0
3.000792499E0,-7.956135273E-2,2.721835673E-1,9.761520386E0,9.765638440E0
3.002939045E0,-9.391828626E-2,2.769692242E-1,9.756733894E0,9.761116170E0
3.005110930E0,-8.434699476E-2,2.626122832E-1,9.756733894E0,9.760631942E0
3.007267852E0,-7.477571070E-2,2.673979402E-1,9.751948357E0,9.755900257E0
3.009423095E0,-7.956135273E-2,2.721835673E-1,9.761520386E0,9.765638440E0
3.011553293E0,-7.956135273E-2,2.721835673E-1,9.742377281E0,9.746503424E0
3.013711293E0,-8.913264424E-2,2.865405083E-1,9.766305923E0,9.770915079E0
3.015870534E0,-8.434699476E-2,2.721835673E-1,9.771091461E0,9.775245606E0
3.018044668E0,-7.477571070E-2,2.673979402E-1,9.737591743E0,9.741549468E0
3.020201336E0,-7.956135273E-2,2.721835673E-1,9.751948357E0,9.756070451E0
3.022355175E0,-7.956135273E-2,2.769692242E-1,9.785448074E0,9.789690290E0
3.024495281E0,-6.999006122E-2,2.626122832E-1,9.747162819E0,9.750951074E0
3.026672121E0,-8.434699476E-2,2.673979402E-1,9.723235130E0,9.727276981E0
3.028828524E0,-8.434699476E-2,2.626122832E-1,9.723235130E0,9.727146602E0
3.030991569E0,-7.477571070E-2,2.673979402E-1,9.761520386E0,9.765468412E0
3.033142235E0,-7.956135273E-2,2.769692242E-1,9.780662537E0,9.784906827E0
3.035297438E0,-8.434699476E-2,2.673979402E-1,9.737591743E0,9.741627638E0
3.037458428E0,-9.391828626E-2,2.626122832E-1,9.728020668E0,9.732017878E0
3.039617069E0,-8.434699476E-2,2.721835673E-1,9.775876999E0,9.780029111E0
3.041775374E0,-7.477571070E-2,2.626122832E-1,9.790233612E0,9.794040576E0
3.043931573E0,-9.451649338E-2,2.769692242E-1,9.709476471E0,9.713885868E0
3.046087936E0,-7.956135273E-2,2.721835673E-1,9.728020668E0,9.732152898E0
3.048246413E0,-8.913264424E-2,2.721835673E-1,9.814162254E0,9.818340454E0
3.050402836E0,-8.913264424E-2,2.817548811E-1,9.790233612E0,9.794692676E0
3.052561447E0,-9.451649338E-2,2.626122832E-1,9.699904442E0,9.703919041E0
3.054717789E0,-8.913264424E-2,2.673979402E-1,9.728020668E0,9.732103185E0
3.056876653E0,-7.477571070E-2,2.817548811E-1,9.780662537E0,9.785005717E0
3.059033809E0,-7.956135273E-2,2.673979402E-1,9.766305923E0,9.770289814E0
3.061191127E0,-8.913264424E-2,2.673979402E-1,9.737591743E0,9.741670249E0
3.063345384E0,-9.391828626E-2,2.673979402E-1,9.713663101E0,9.717796723E0
3.065497057E0,-7.477571070E-2,2.865405083E-1,9.761520386E0,9.766011320E0
3.067662543E0,-7.956135273E-2,2.769692242E-1,9.790233612E0,9.794473755E0
3.069820970E0,-8.913264424E-2,2.769692242E-1,9.732806206E0,9.737154267E0
3.071979530E0,-7.477571070E-2,2.817548811E-1,9.732806206E0,9.737170732E0
3.074136096E0,-7.477571070E-2,2.817548811E-1,9.775876999E0,9.780222304E0
3.076293353E0,-8.434699476E-2,2.769692242E-1,9.780662537E0,9.784946910E0
3.078448260E0,-8.434699476E-2,2.769692242E-1,9.732806206E0,9.737111636E0
3.080597064E0,-6.999006122E-2,2.626122832E-1,9.737591743E0,9.741383720E0
3.082765379E0,-8.434699476E-2,2.865405083E-1,9.761520386E0,9.766089295E0
3.084922087E0,-6.999006122E-2,2.721835673E-1,9.775876999E0,9.779915828E0
3.087083068E0,-8.913264424E-2,2.673979402E-1,9.751948357E0,9.756020861E0
3.089235026E0,-7.477571070E-2,2.721835673E-1,9.737591743E0,9.741682004E0
3.091387970E0,-6.520441920E-2,2.769692242E-1,9.775876999E0,9.780017110E0
3.093552897E0,-6.999006122E-2,2.578266263E-1,9.756733894E0,9.760390846E0
3.095710256E0,-8.434699476E-2,2.626122832E-1,9.747162819E0,9.751064693E0
3.097868633E0,-6.999006122E-2,2.817548811E-1,9.732806206E0,9.737135157E0
3.100023784E0,-7.477571070E-2,2.721835673E-1,9.747162819E0,9.751249065E0
3.102177186E0,-6.999006122E-2,2.817548811E-1,9.761520386E0,9.765836608E0
3.104337688E0,-8.434699476E-2,2.482553422E-1,9.756733894E0,9.760256217E0
3.106486971E0,-7.477571070E-2,2.626122832E-1,9.747162819E0,9.750986598E0
3.108656191E0,-8.434699476E-2,2.578266263E-1,9.747162819E0,9.750936981E0
3.110809826E0,-6.999006122E-2,2.626122832E-1,9.761520386E0,9.765303071E0
3.112965466E0,-8.434699476E-2,2.769692242E-1,9.723235130E0,9.727544796E0
3.115143039E0,-8.434699476E-2,2.673979402E-1,9.742377281E0,9.746411194E0
3.117300967E0,-6.999006122E-2,2.721835673E-1,9.747162819E0,9.751213541E0
3.119460106E0,-7.956135273E-2,2.626122832E-1,9.756733894E0,9.760591760E0
3.121613030E0,-9.870393574E-2,2.721835673E-1,9.747162819E0,9.751461910E0
3.123761987E0,-8.434699476E-2,2.673979402E-1,9.761520386E0,9.765546391E0
3.125899794E0,-7.956135273E-2,2.817548811E-1,9.766305923E0,9.770693282E0
3.128083429E0,-7.477571070E-2,2.721835673E-1,9.761520386E0,9.765600624E0
3.130234918E0,-8.434699476E-2,2.769692242E-1,9.751948357E0,9.756245339E0
3.132406112E0,-7.956135273E-2,2.626122832E-1,9.785448074E0,9.789294624E0
3.134555181E0,-8.434699476E-2,2.482553422E-1,9.751948357E0,9.755472407E0
3.136704361E0,-7.477571070E-2,2.626122832E-1,9.732806206E0,9.736635623E0
3.138865891E0,-8.434699476E-2,2.626122832E-1,9.742377281E0,9.746281071E0
3.140999334E0,-7.477571070E-2,2.626122832E-1,9.761520386E0,9.765338543E0
3.143177242E0,-8.434699476E-2,2.673979402E-1,9.737591743E0,9.741627638E0
3.145344438E0,-8.434699476E-2,2.673979402E-1,9.737591743E0,9.741627638E0
3.147508389E0,-8.434699476E-2,2.626122832E-1,9.747162819E0,9.751064693E0
3.149659085E0,-8.913264424E-2,2.578266263E-1,9.751948357E0,9.755763217E0
3.151805030E0,-8.434699476E-2,2.673979402E-1,9.747162819E0,9.751194752E0
3.153970069E0,-8.434699476E-2,2.578266263E-1,9.751948357E0,9.755720667E0
3.156122118E0,-7.956135273E-2,2.626122832E-1,9.728020668E0,9.731889916E0
3.158304929E0,-8.434699476E-2,2.530409992E-1,9.742377281E0,9.746027870E0
3.160447182E0,-6.520441920E-2,2.530409992E-1,9.742377281E0,9.745880999E0
3.162607695E0,-6.999006122E-2,2.626122832E-1,9.742377281E0,9.746167396E0
3.164758076E0,-8.434699476E-2,2.530409992E-1,9.742377281E0,9.746027870E0
3.166915628E0,-8.434699476E-2,2.482553422E-1,9.756733894E0,9.760256217E0
3.169067880E0,-8.913264424E-2,2.673979402E-1,9.747162819E0,9.751237322E0
3.171233154E0,-7.956135273E-2,2.626122832E-1,9.766305923E0,9.770160009E0
3.173391306E0,-7.956135273E-2,2.626122832E-1,9.728020668E0,9.731889916E0
3.175549764E0,-9.391828626E-2,2.626122832E-1,9.742377281E0,9.746368603E0
3.177707835E0,-8.434699476E-2,2.578266263E-1,9.751948357E0,9.755720667E0
3.179862050E0,-7.477571070E-2,2.626122832E-1,9.747162819E0,9.750986598E0
3.181989990E0,-7.956135273E-2,2.769692242E-1,9.766305923E0,9.770556450E0
3.184177542E0,-7.956135273E-2,2.626122832E-1,9.742377281E0,9.746240830E0
3.186334067E0,-7.956135273E-2,2.530409992E-1,9.728020668E0,9.731636341E0
3.188499940E0,-6.999006122E-2,2.530409992E-1,9.775876999E0,9.779401794E0
3.190644848E0,-7.956135273E-2,2.673979402E-1,9.775876999E0,9.779856991E0
3.192788810E0,-8.434699476E-2,2.434697002E-1,9.723235130E0,9.726648617E0
3.194966565E0,-7.956135273E-2,2.482553422E-1,9.732806206E0,9.736296902E0
3.197123649E0,-7.956135273E-2,2.673979402E-1,9.766305923E0,9.770289814E0
3.199285749E0,-7.477571070E-2,2.530409992E-1,9.761520386E0,9.765085837E0
3.201434452E0,-7.477571070E-2,2.530409992E-1,9.747162819E0,9.750733520E0
3.203572137E0,-6.520441920E-2,2.482553422E-1,9.751948357E0,9.755325678E0
3.205739150E0,-8.434699476E-2,2.530409992E-1,9.761520386E0,9.765163819E0
3.207909580E0,-7.956135273E-2,2.530409992E-1,9.756733894E0,9.760338931E0
3.210071904E0,-7.477571070E-2,2.578266263E-1,9.747162819E0,9.750858885E0
3.212221837E0,-7.956135273E-2,2.482553422E-1,9.737591743E0,9.741080725E0
3.214351802E0,-7.477571070E-2,2.578266263E-1,9.742377281E0,9.746075162E0
3.216527237E0,-7.477571070E-2,2.578266263E-1,9.780662537E0,9.784345948E0
3.218696426E0,-6.999006122E-2,2.578266263E-1,9.747162819E0,9.750823360E0
3.220861588E0,-6.520441920E-2,2.578266263E-1,9.737591743E0,9.741222672E0
3.223020961E0,-7.477571070E-2,2.434697002E-1,9.728020668E0,9.731354223E0
3.225196447E0,-6.999006122E-2,2.626122832E-1,9.751948357E0,9.755734753E0
3.227333167E0,-6.999006122E-2,2.530409992E-1,9.766305923E0,9.769834172E0
3.229478685E0,-7.956135273E-2,2.626122832E-1,9.723235130E0,9.727106282E0
3.231610409E0,-7.956135273E-2,2.578266263E-1,9.766305923E0,9.770032547E0
3.233791297E0,-6.999006122E-2,2.626122832E-1,9.756733894E0,9.760518434E0
3.235929919E0,-6.520441920E-2,2.482553422E-1,9.756733894E0,9.760109560E0
3.238120928E0,-6.520441920E-2,2.626122832E-1,9.742377281E0,9.746134204E0
3.240271451E0,-6.999006122E-2,2.434697002E-1,9.742377281E0,9.745670382E0
3.242437620E0,-7.477571070E-2,2.626122832E-1,9.771091461E0,9.774905880E0
3.244585936E0,-8.434699476E-2,2.626122832E-1,9.756733894E0,9.760631942E0
3.246741036E0,-7.956135273E-2,2.626122832E-1,9.761520386E0,9.765376360E0
3.248888193E0,-6.999006122E-2,2.434697002E-1,9.742377281E0,9.745670382E0
3.251059142E0,-6.999006122E-2,2.626122832E-1,9.756733894E0,9.760518434E0
3.253215443E0,-8.434699476E-2,2.578266263E-1,9.751948357E0,9.755720667E0
3.255376810E0,-7.956135273E-2,2.578266263E-1,9.732806206E0,9.736545651E0
3.257530243E0,-6.999006122E-2,2.578266263E-1,9.761520386E0,9.765175545E0
3.259689301E0,-7.956135273E-2,2.626122832E-1,9.766305923E0,9.770160009E0
3.261839610E0,-7.956135273E-2,2.721835673E-1,9.751948357E0,9.756070451E0
3.263974844E0,-7.956135273E-2,2.673979402E-1,9.756733894E0,9.760721692E0
3.266132508E0,-6.999006122E-2,2.626122832E-1,9.742377281E0,9.746167396E0
3.268290041E0,-7.956135273E-2,2.578266263E-1,9.747162819E0,9.750896759E0
3.270452394E0,-6.999006122E-2,2.530409992E-1,9.756733894E0,9.760265603E0
3.272611961E0,-6.041877344E-2,2.626122832E-1,9.756733894E0,9.760454494E0
3.274769096E0,-7.477571070E-2,2.721835673E-1,9.771091461E0,9.775167704E0
3.276925356E0,-7.477571070E-2,2.626122832E-1,9.756733894E0,9.760553924E0
3.279081434E0,-8.434699476E-2,2.626122832E-1,9.761520386E0,9.765416523E0
3.281240095E0,-6.520441920E-2,2.530409992E-1,9.766305923E0,9.769801060E0
3.283397973E0,-6.520441920E-2,2.626122832E-1,9.761520386E0,9.765269943E0
3.285556084E0,-7.956135273E-2,2.721835673E-1,9.756733894E0,9.760853968E0
3.287712345E0,-7.477571070E-2,2.626122832E-1,9.747162819E0,9.750986598E0
3.289872288E0,-8.434699476E-2,2.721835673E-1,9.756733894E0,9.760894149E0
3.292022923E0,-7.477571070E-2,2.626122832E-1,9.756733894E0,9.760553924E0
3.294184707E0,-6.520441920E-2,2.673979402E-1,9.751948357E0,9.755831591E0
3.296340154E0,-6.520441920E-2,2.673979402E-1,9.747162819E0,9.751047959E0
3.298500534E0,-7.477571070E-2,2.626122832E-1,9.737591743E0,9.741419280E0
3.300656998E0,-8.434699476E-2,2.721835673E-1,9.761520386E0,9.765678602E0
3.302814337E0,-7.956135273E-2,2.817548811E-1,9.775876999E0,9.780260064E0
3.304971034E0,-7.477571070E-2,2.626122832E-1,9.751948357E0,9.755770260E0
3.307128994E0,-8.913264424E-2,2.673979402E-1,9.747162819E0,9.751237322E0
3.309285579E0,-8.434699476E-2,2.626122832E-1,9.775876999E0,9.779767417E0
3.311444170E0,-6.999006122E-2,2.626122832E-1,9.747162819E0,9.750951074E0
3.313603492E0,-7.477571070E-2,2.578266263E-1,9.756733894E0,9.760426336E0
3.315772091E0,-7.956135273E-2,2.673979402E-1,9.751948357E0,9.755938111E0
3.317929288E0,-7.477571070E-2,2.721835673E-1,9.728020668E0,9.732114951E0
3.320086657E0,-7.956135273E-2,2.673979402E-1,9.766305923E0,9.770289814E0
3.322239876E0,-8.434699476E-2,2.769692242E-1,9.756733894E0,9.761028770E0
3.324395882E0,-9.391828626E-2,3.008974493E-1,9.761520386E0,9.766608427E0
3.326555540E0,-7.477571070E-2,2.865405083E-1,9.742377281E0,9.746877036E0
3.328713937E0,-7.956135273E-2,2.721835673E-1,9.747162819E0,9.751286937E0
3.330871072E0,-7.956135273E-2,2.721835673E-1,9.771091461E0,9.775205484E0
3.333024729E0,-8.434699476E-2,2.578266263E-1,9.771091461E0,9.774856384E0
3.335168650E0,-9.391828626E-2,2.721835673E-1,9.751948357E0,9.756198096E0
3.337343678E0,-7.956135273E-2,2.530409992E-1,9.747162819E0,9.750771394E0
3.339500397E0,-8.434699476E-2,2.769692242E-1,9.761520386E0,9.765813157E0
3.341663899E0,-6.999006122E-2,2.865405083E-1,9.756733894E0,9.761191544E0
3.343815003E0,-7.956135273E-2,2.721835673E-1,9.732806206E0,9.736936404E0
3.345973400E0,-8.434699476E-2,2.626122832E-1,9.742377281E0,9.746281071E0
3.348129792E0,-7.477571070E-2,2.578266263E-1,9.766305923E0,9.769994748E0
3.350288596E0,-8.434699476E-2,2.673979402E-1,9.766305923E0,9.770329957E0
3.352445894E0,-6.999006122E-2,2.769692242E-1,9.761520386E0,9.765699709E0
3.354603253E0,-7.956135273E-2,2.673979402E-1,9.742377281E0,9.746370953E0
3.356759646E0,-7.477571070E-2,2.673979402E-1,9.747162819E0,9.751116658E0
3.358917992E0,-9.391828626E-2,2.721835673E-1,9.766305923E0,9.770549418E0
3.361074517E0,-7.956135273E-2,2.817548811E-1,9.756733894E0,9.761125555E0
3.363231489E0,-8.913264424E-2,2.578266263E-1,9.742377281E0,9.746195888E0
3.365383466E0,-9.870393574E-2,2.721835673E-1,9.756733894E0,9.761028770E0
3.367545556E0,-7.477571070E-2,2.769692242E-1,9.766305923E0,9.770518653E0
3.369695123E0,-8.913264424E-2,2.769692242E-1,9.742377281E0,9.746721073E0
3.371864241E0,-8.434699476E-2,2.626122832E-1,9.723235130E0,9.727146602E0
3.374019200E0,-8.913264424E-2,2.769692242E-1,9.756733894E0,9.761071297E0
3.376179895E0,-6.999006122E-2,2.673979402E-1,9.775876999E0,9.779783810E0
3.378331599E0,-8.434699476E-2,2.769692242E-1,9.742377281E0,9.746678483E0
3.380482315E0,-8.434699476E-2,2.673979402E-1,9.751948357E0,9.755978312E0
3.382649053E0,-7.956135273E-2,2.721835673E-1,9.751948357E0,9.756070451E0
3.384807806E0,-8.434699476E-2,2.673979402E-1,9.751948357E0,9.755978312E0
3.386967687E0,-8.913264424E-2,2.578266263E-1,9.761520386E0,9.765331507E0
3.389124620E0,-9.391828626E-2,2.721835673E-1,9.761520386E0,9.765765960E0
3.391286068E0,-8.434699476E-2,2.721835673E-1,9.751948357E0,9.756110652E0
3.393427792E0,-9.391828626E-2,2.673979402E-1,9.737591743E0,9.741715212E0
3.395590074E0,-8.913264424E-2,2.530409992E-1,9.756733894E0,9.760421644E0
3.397749763E0,-8.913264424E-2,2.673979402E-1,9.742377281E0,9.746453785E0
3.399911436E0,-1.034895778E-1,2.386840582E-1,9.742377281E0,9.745850156E0
3.402071876E0,-8.434699476E-2,2.673979402E-1,9.747162819E0,9.751194752E0
3.404229684E0,-9.391828626E-2,2.626122832E-1,9.756733894E0,9.760719345E0
3.406405617E0,-9.391828626E-2,2.673979402E-1,9.756733894E0,9.760849276E0
3.408554025E0,-7.477571070E-2,2.673979402E-1,9.737591743E0,9.741549468E0
3.410715494E0,-7.956135273E-2,2.769692242E-1,9.732806206E0,9.737071356E0
3.412868143E0,-8.434699476E-2,2.673979402E-1,9.728020668E0,9.732060532E0
3.415011881E0,-8.434699476E-2,2.626122832E-1,9.756733894E0,9.760631942E0
3.417180765E0,-8.434699476E-2,2.530409992E-1,9.751948357E0,9.755595364E0
3.419338154E0,-7.477571070E-2,2.626122832E-1,9.747162819E0,9.750986598E0
3.421500315E0,-7.477571070E-2,2.673979402E-1,9.732806206E0,9.736765875E0
3.423654572E0,-8.913264424E-2,2.673979402E-1,9.751948357E0,9.756020861E0
3.425811199E0,-8.434699476E-2,2.626122832E-1,9.751948357E0,9.755848317E0
3.427968252E0,-8.913264424E-2,2.578266263E-1,9.756733894E0,9.760546884E0
3.430121878E0,-7.956135273E-2,2.626122832E-1,9.737591743E0,9.741457190E0
3.432284018E0,-8.434699476E-2,2.482553422E-1,9.751948357E0,9.755472407E0
3.434438509E0,-8.434699476E-2,2.530409992E-1,9.771091461E0,9.774731327E0
3.436591738E0,-7.956135273E-2,2.530409992E-1,9.756733894E0,9.760338931E0
3.438757123E0,-7.956135273E-2,2.578266263E-1,9.747162819E0,9.750896759E0
3.440914014E0,-8.434699476E-2,2.721835673E-1,9.751948357E0,9.756110652E0
3.443071607E0,-8.913264424E-2,2.673979402E-1,9.771091461E0,9.775155990E0
3.445220126E0,-7.477571070E-2,2.626122832E-1,9.756733894E0,9.760553924E0
3.447372826E0,-7.956135273E-2,2.578266263E-1,9.742377281E0,9.746113054E0
3.449540612E0,-8.913264424E-2,2.434697002E-1,9.761520386E0,9.764962999E0
3.451688613E0,-8.434699476E-2,2.626122832E-1,9.775876999E0,9.779767417E0
3.453862248E0,-7.477571070E-2,2.626122832E-1,9.756733894E0,9.760553924E0
3.456011713E0,-7.956135273E-2,2.578266263E-1,9.737591743E0,9.741329352E0
3.458154891E0,-7.956135273E-2,2.530409992E-1,9.761520386E0,9.765123655E0
3.460317021E0,-8.434699476E-2,2.626122832E-1,9.766305923E0,9.770200152E0
3.462487991E0,-7.956135273E-2,2.434697002E-1,9.756733894E0,9.760095481E0
3.464648209E0,-8.434699476E-2,2.626122832E-1,9.751948357E0,9.755848317E0
3.466801530E0,-8.434699476E-2,2.530409992E-1,9.747162819E0,9.750811617E0
3.468959835E0,-8.434699476E-2,2.530409992E-1,9.751948357E0,9.755595364E0
3.471119005E0,-7.956135273E-2,2.578266263E-1,9.761520386E0,9.765248836E0
3.473277147E0,-7.956135273E-2,2.578266263E-1,9.761520386E0,9.765248836E0
3.475426846E0,-6.520441920E-2,2.626122832E-1,9.742377281E0,9.746134204E0
3.477561907E0,-7.477571070E-2,2.482553422E-1,9.761520386E0,9.764962999E0
3.479731483E0,-8.913264424E-2,2.530409992E-1,9.761520386E0,9.765206327E0
3.481881568E0,-7.956135273E-2,2.578266263E-1,9.756733894E0,9.760464173E0
3.484073941E0,-8.434699476E-2,2.578266263E-1,9.747162819E0,9.750936981E0
3.486208616E0,-8.913264424E-2,2.530409992E-1,9.751948357E0,9.755637915E0
3.488380023E0,-7.477571070E-2,2.482553422E-1,9.766305923E0,9.769746850E0
3.490513101E0,-8.434699476E-2,2.530409992E-1,9.761520386E0,9.765163819E0
3.492683552E0,-7.477571070E-2,2.626122832E-1,9.747162819E0,9.750986598E0
3.494849548E0,-8.434699476E-2,2.530409992E-1,9.756733894E0,9.760379114E0
3.497011891E0,-7.956135273E-2,2.578266263E-1,9.761520386E0,9.765248836E0
3.499167185E0,-6.999006122E-2,2.626122832E-1,9.771091461E0,9.774870442E0
3.501322184E0,-9.391828626E-2,2.578266263E-1,9.766305923E0,9.770160009E0
3.503475413E0,-7.956135273E-2,2.530409992E-1,9.723235130E0,9.726852582E0
3.505618032E0,-7.956135273E-2,2.626122832E-1,9.751948357E0,9.755808115E0
3.507761577E0,-8.913264424E-2,2.482553422E-1,9.761520386E0,9.765083491E0
3.509925833E0,-7.956135273E-2,2.673979402E-1,9.756733894E0,9.760721692E0
3.512095766E0,-6.999006122E-2,2.530409992E-1,9.747162819E0,9.750697994E0
3.514257397E0,-8.434699476E-2,2.482553422E-1,9.756733894E0,9.760256217E0
3.516412844E0,-8.434699476E-2,2.578266263E-1,9.766305923E0,9.770072690E0
3.518566256E0,-7.477571070E-2,2.530409992E-1,9.761520386E0,9.765085837E0
3.520715608E0,-6.999006122E-2,2.721835673E-1,9.728020668E0,9.732079357E0
3.522885541E0,-7.956135273E-2,2.673979402E-1,9.747162819E0,9.751154531E0
3.525047366E0,-7.477571070E-2,2.626122832E-1,9.756733894E0,9.760553924E0
3.527200972E0,-7.477571070E-2,2.673979402E-1,9.761520386E0,9.765468412E0
3.529354923E0,-6.041877344E-2,2.578266263E-1,9.751948357E0,9.755543129E0
3.531511681E0,-6.999006122E-2,2.721835673E-1,9.737591743E0,9.741646445E0
3.533672418E0,-6.999006122E-2,2.578266263E-1,9.756733894E0,9.760390846E0
3.535838586E0,-6.041877344E-2,2.769692242E-1,9.766305923E0,9.770419324E0
3.537980972E0,-7.477571070E-2,2.578266263E-1,9.747162819E0,9.750858885E0
3.540128362E0,-7.477571070E-2,2.626122832E-1,9.742377281E0,9.746202938E0
